ID,TIME,FEEDBACK,N_FIGURES,TRIAL,RM,SELECTED,LATENCY,ACCURACY
AA1003MALE20,150,1,2,training,100,D5,,1
AA1003MALE20,150,1,2,training,100,D5,,1
AA1003MALE20,120,0,3,experiment,100,D5,105.39786,1
AA1003MALE20,120,0,2,experiment,100,D5,62.2855451,1
AA1003MALE20,120,0,4,experiment,81,D3,91.1286218,0
AA1003MALE20,120,0,2,experiment,50,D2,41.6537554,0
AA1003MALE20,120,0,4,experiment,100,D5,79.1941678,1
AA1003MALE20,120,0,2,experiment,100,D5,57.1351023,1
AA1003MALE20,120,0,4,experiment,100,D5,34.8077068,1
AA1003MALE20,120,0,3,experiment,100,D5,52.3041373,1
AA1003MALE20,120,0,4,experiment,100,D5,58.6242966,1
AA1003MALE20,120,0,2,experiment,100,D5,45.8483737,1
AA1003MALE20,120,0,3,experiment,100,D5,25.314926,1
AA1003MALE20,120,0,3,experiment,100,D5,23.8348522,1
AA1003MALE20,120,0,3,experiment,100,D5,35.4905059,1
AA1003MALE20,120,0,4,experiment,100,D5,29.9457841,1
AA1003MALE20,120,0,2,experiment,100,D5,27.7276725,1
AA1003MALE20,120,0,3,experiment,100,D5,36.0554506,1
AA1003MALE20,120,0,2,experiment,100,D5,29.5460057,1
AA1003MALE20,120,0,4,experiment,100,D5,29.8596345,1
AB0605MALE20,150,1,2,training,50,D2,,0
AB0605MALE20,150,1,2,training,75,D4,,0
AB0605MALE20,120,0,4,experiment,12,D1,112.657386,0
AB0605MALE20,120,0,2,experiment,25,D1,34.4442013,0
AB0605MALE20,120,0,2,experiment,100,D5,89.0056019,1
AB0605MALE20,120,0,4,experiment,100,D5,86.6499323,1
AB0605MALE20,120,0,2,experiment,50,D2,56.8142857,0
AB0605MALE20,120,0,2,experiment,100,D5,45.2672523,1
AB0605MALE20,120,0,4,experiment,87,D4,52.6959606,0
AB0605MALE20,120,0,3,experiment,0,D0,41.4740945,0
AB0605MALE20,120,0,4,experiment,25,D2,15.6611784,0
AB0605MALE20,120,0,2,experiment,100,D5,46.7232453,1
AB0605MALE20,120,0,3,experiment,100,D5,34.289462,1
AB0605MALE20,120,0,3,experiment,75,D3,14.94846,0
AB0605MALE20,120,0,3,experiment,16,D1,15.2855625,0
AB0605MALE20,120,0,4,experiment,100,D5,,0
AB0605MALE20,120,0,3,experiment,16,D1,44.1919753,0
AB0605MALE20,120,0,2,experiment,100,D5,19.2450888,1
AB0605MALE20,120,0,3,experiment,16,D1,15.1998168,0
AB0605MALE20,120,0,4,experiment,25,D2,11.9527971,0
AB2404MALE24,150,1,2,training,100,D5,,1
AB2404MALE24,150,1,2,training,50,D2,,0
AB2404MALE24,120,0,3,experiment,33,D2,66.1533015,0
AB2404MALE24,120,0,4,experiment,12,D1,15.3677751,0
AB2404MALE24,120,0,4,experiment,100,D5,29.8449441,1
AB2404MALE24,120,0,2,experiment,100,D5,14.8080819,1
AB2404MALE24,120,0,3,experiment,100,D5,53.9871458,1
AB2404MALE24,120,0,3,experiment,0,D0,74.5183208,0
AB2404MALE24,120,0,4,experiment,25,D2,39.244109,0
AB2404MALE24,120,0,2,experiment,75,D4,,0
AB2404MALE24,120,0,2,experiment,100,D5,77.8067133,1
AB2404MALE24,120,0,4,experiment,87,D4,25.3529929,0
AB2404MALE24,120,0,3,experiment,83,D4,10.7135191,0
AB2404MALE24,120,0,3,experiment,75,D3,38.6249304,0
AB2404MALE24,120,0,2,experiment,100,D5,99.5737848,1
AB2404MALE24,120,0,2,experiment,63,D3,62.3919132,0
AB2404MALE24,120,0,4,experiment,12,D1,,0
AB2404MALE24,120,0,3,experiment,100,D5,27.7835329,1
AB2404MALE24,120,0,2,experiment,50,D2,,0
AB2404MALE24,120,0,4,experiment,100,D5,,0
AB2701MALE20,150,1,2,training,75,D4,,0
AB2701MALE20,150,1,2,training,100,D5,,1
AB2701MALE20,120,0,2,experiment,100,D5,92.7232022,1
AB2701MALE20,120,0,3,experiment,75,D3,68.9747799,0
AB2701MALE20,120,0,2,experiment,25,D1,57.5023324,0
AB2701MALE20,120,0,2,experiment,25,D1,38.5178586,0
AB2701MALE20,120,0,2,experiment,25,D1,16.1315229,0
AB2701MALE20,120,0,4,experiment,81,D3,44.2053374,0
AB2701MALE20,120,0,3,experiment,83,D4,62.160017,0
AB2701MALE20,120,0,3,experiment,83,D4,17.8867189,0
AB2701MALE20,120,0,2,experiment,100,D5,41.148272,1
AB2701MALE20,120,0,3,experiment,83,D4,57.7824221,0
AB2701MALE20,120,0,4,experiment,87,D4,16.4398905,0
AB2701MALE20,120,0,4,experiment,100,D5,44.3904362,1
AB2701MALE20,120,0,2,experiment,0,D0,38.6895718,0
AB2701MALE20,120,0,3,experiment,75,D3,33.5246498,0
AB2701MALE20,120,0,3,experiment,16,D1,40.3917931,0
AB2701MALE20,120,0,4,experiment,12,D1,26.159964,0
AB2701MALE20,120,0,4,experiment,100,D5,71.3307626,1
AB2701MALE20,120,0,4,experiment,12,D1,,0
AF0208MALE20,150,1,2,training,100,D5,,1
AF0208MALE20,150,1,2,training,50,D2,,0
AF0208MALE20,120,0,4,experiment,25,D2,74.6895869,0
AF0208MALE20,120,0,4,experiment,100,D5,59.4682052,1
AF0208MALE20,120,0,2,experiment,100,D5,45.4525891,1
AF0208MALE20,120,0,2,experiment,63,D3,61.483053,0
AF0208MALE20,120,0,3,experiment,100,D5,77.0342069,1
AF0208MALE20,120,0,3,experiment,16,D1,54.6310104,0
AF0208MALE20,120,0,3,experiment,100,D5,71.0237742,1
AF0208MALE20,120,0,3,experiment,100,D5,72.7782201,1
AF0208MALE20,120,0,3,experiment,100,D5,61.9844815,1
AF0208MALE20,120,0,2,experiment,100,D5,65.2769918,1
AF0208MALE20,120,0,4,experiment,100,D5,68.9960685,1
AF0208MALE20,120,0,4,experiment,100,D5,37.6482446,1
AF0208MALE20,120,0,2,experiment,100,D5,42.1328602,1
AF0208MALE20,120,0,3,experiment,100,D5,82.8676935,1
AF0208MALE20,120,0,2,experiment,100,D5,39.9340086,1
AF0208MALE20,120,0,2,experiment,100,D5,45.6494318,1
AF0208MALE20,120,0,4,experiment,25,D2,76.3425764,0
AF0208MALE20,120,0,4,experiment,100,D5,57.0168668,1
AF0502MALE20,150,1,2,training,50,D2,,0
AF0502MALE20,150,1,2,training,25,D1,,0
AF0502MALE20,120,0,2,experiment,100,D5,46.2653113,1
AF0502MALE20,120,0,2,experiment,25,D1,,0
AF0502MALE20,120,0,4,experiment,12,D1,32.847424,0
AF0502MALE20,120,0,3,experiment,100,D5,23.4923681,1
AF0502MALE20,120,0,3,experiment,100,D5,67.0635376,1
AF0502MALE20,120,0,4,experiment,81,D3,34.6635704,0
AF0502MALE20,120,0,3,experiment,83,D4,10.1240206,0
AF0502MALE20,120,0,3,experiment,100,D5,45.5347195,1
AF0502MALE20,120,0,2,experiment,0,D0,46.7976598,0
AF0502MALE20,120,0,3,experiment,100,D5,40.9803941,1
AF0502MALE20,120,0,2,experiment,50,D2,54.1829521,0
AF0502MALE20,120,0,4,experiment,87,D4,37.5987759,0
AF0502MALE20,120,0,4,experiment,100,D5,52.888681,1
AF0502MALE20,120,0,3,experiment,100,D5,61.4344835,1
AF0502MALE20,120,0,2,experiment,50,D2,,0
AF0502MALE20,120,0,4,experiment,25,D2,,0
AF0502MALE20,120,0,2,experiment,100,D5,50.0143732,1
AF0502MALE20,120,0,4,experiment,81,D3,41.5777258,0
AG0408FEMALE20,150,1,2,training,100,D5,,1
AG0408FEMALE20,150,1,2,training,100,D5,,1
AG0408FEMALE20,120,0,4,experiment,100,D5,83.8354873,1
AG0408FEMALE20,120,0,3,experiment,75,D3,,0
AG0408FEMALE20,120,0,3,experiment,75,D3,68.5814033,0
AG0408FEMALE20,120,0,3,experiment,75,D3,80.335946,0
AG0408FEMALE20,120,0,2,experiment,63,D3,42.9670441,0
AG0408FEMALE20,120,0,2,experiment,50,D2,32.0293545,0
AG0408FEMALE20,120,0,2,experiment,63,D3,26.8129293,0
AG0408FEMALE20,120,0,3,experiment,75,D3,54.3586407,0
AG0408FEMALE20,120,0,4,experiment,100,D5,50.5659941,1
AG0408FEMALE20,120,0,4,experiment,100,D5,66.7401986,1
AG0408FEMALE20,120,0,2,experiment,75,D4,17.411434,0
AG0408FEMALE20,120,0,4,experiment,87,D4,30.3407907,0
AG0408FEMALE20,120,0,2,experiment,100,D5,57.3312982,1
AG0408FEMALE20,120,0,4,experiment,87,D4,43.5605065,0
AG0408FEMALE20,120,0,4,experiment,100,D5,28.8731739,1
AG0408FEMALE20,120,0,2,experiment,75,D4,21.1804312,0
AG0408FEMALE20,120,0,3,experiment,75,D3,24.9527169,0
AG0408FEMALE20,120,0,3,experiment,100,D5,14.1357787,1
AG0908MALE20,150,1,2,training,50,D2,,0
AG0908MALE20,150,1,2,training,25,D1,,0
AG0908MALE20,120,0,2,experiment,100,D5,107.74007,1
AG0908MALE20,120,0,3,experiment,100,D5,89.2461756,1
AG0908MALE20,120,0,2,experiment,100,D5,87.2127412,1
AG0908MALE20,120,0,4,experiment,100,D5,116.915347,1
AG0908MALE20,120,0,4,experiment,100,D5,114.991822,1
AG0908MALE20,120,0,3,experiment,100,D5,112.751097,1
AG0908MALE20,120,0,4,experiment,100,D5,110.531255,1
AG0908MALE20,120,0,3,experiment,100,D5,87.8693576,1
AG0908MALE20,120,0,3,experiment,100,D5,93.3756139,1
AG0908MALE20,120,0,4,experiment,100,D5,118.443859,1
AG0908MALE20,120,0,2,experiment,100,D5,80.0758611,1
AG0908MALE20,120,0,3,experiment,100,D5,66.6344562,1
AG0908MALE20,120,0,4,experiment,100,D5,106.120631,1
AG0908MALE20,120,0,2,experiment,100,D5,89.8750152,1
AG0908MALE20,120,0,3,experiment,100,D5,118.538273,1
AG0908MALE20,120,0,4,experiment,100,D5,117.313648,1
AG0908MALE20,120,0,2,experiment,100,D5,96.6676138,1
AG0908MALE20,120,0,2,experiment,100,D5,63.5999912,1
AG1209MALE20,150,1,2,training,75,D4,,0
AG1209MALE20,150,1,2,training,100,D5,,1
AG1209MALE20,120,0,2,experiment,100,D5,75.634901,1
AG1209MALE20,120,0,4,experiment,25,D2,53.6696699,0
AG1209MALE20,120,0,4,experiment,81,D3,48.9785,0
AG1209MALE20,120,0,4,experiment,100,D5,46.721317,1
AG1209MALE20,120,0,2,experiment,0,D0,56.0957948,0
AG1209MALE20,120,0,3,experiment,75,D3,10.9204584,0
AG1209MALE20,120,0,3,experiment,83,D4,15.531655,0
AG1209MALE20,120,0,2,experiment,0,D0,18.0026313,0
AG1209MALE20,120,0,2,experiment,63,D3,15.0078445,0
AG1209MALE20,120,0,2,experiment,0,D0,30.0461615,0
AG1209MALE20,120,0,3,experiment,83,D4,12.3815746,0
AG1209MALE20,120,0,2,experiment,63,D3,17.909849,0
AG1209MALE20,120,0,3,experiment,33,D2,15.482508,0
AG1209MALE20,120,0,3,experiment,0,D0,44.6401111,0
AG1209MALE20,120,0,3,experiment,83,D4,21.3678507,0
AG1209MALE20,120,0,4,experiment,100,D5,10.4542781,1
AG1209MALE20,120,0,4,experiment,81,D3,26.8007437,0
AG1209MALE20,120,0,4,experiment,100,D5,,0
AG1401MALE20,150,1,2,training,100,D5,,1
AG1401MALE20,150,1,2,training,50,D2,,0
AG1401MALE20,120,0,3,experiment,75,D3,101.362078,0
AG1401MALE20,120,0,2,experiment,100,D5,43.0900231,1
AG1401MALE20,120,0,4,experiment,100,D5,108.419482,1
AG1401MALE20,120,0,4,experiment,100,D5,40.1131381,1
AG1401MALE20,120,0,2,experiment,0,D0,81.5419257,0
AG1401MALE20,120,0,3,experiment,33,D2,103.639542,0
AG1401MALE20,120,0,2,experiment,50,D2,21.2483703,0
AG1401MALE20,120,0,2,experiment,100,D5,111.854475,1
AG1401MALE20,120,0,4,experiment,100,D5,103.085245,1
AG1401MALE20,120,0,3,experiment,100,D5,59.1610194,1
AG1401MALE20,120,0,4,experiment,100,D5,89.2807657,1
AG1401MALE20,120,0,3,experiment,100,D5,60.0660862,1
AG1401MALE20,120,0,2,experiment,25,D1,73.7951794,0
AG1401MALE20,120,0,3,experiment,83,D4,86.4939026,0
AG1401MALE20,120,0,2,experiment,75,D4,72.0712131,0
AG1401MALE20,120,0,3,experiment,100,D5,50.2056765,1
AG1401MALE20,120,0,4,experiment,81,D3,90.5327386,0
AG1401MALE20,120,0,4,experiment,81,D3,87.2662266,0
AG2402MALE20,150,1,2,training,75,D4,,0
AG2402MALE20,150,1,2,training,50,D2,,0
AG2402MALE20,120,0,4,experiment,100,D5,58.9694371,1
AG2402MALE20,120,0,4,experiment,100,D5,55.8783321,1
AG2402MALE20,120,0,4,experiment,25,D2,18.8462891,0
AG2402MALE20,120,0,3,experiment,100,D5,70.0644225,1
AG2402MALE20,120,0,3,experiment,75,D3,72.4554276,0
AG2402MALE20,120,0,3,experiment,100,D5,59.3190577,1
AG2402MALE20,120,0,4,experiment,87,D4,99.2124598,0
AG2402MALE20,120,0,2,experiment,100,D5,50.2706423,1
AG2402MALE20,120,0,2,experiment,75,D4,58.6630079,0
AG2402MALE20,120,0,2,experiment,75,D4,61.9587482,0
AG2402MALE20,120,0,3,experiment,75,D3,36.602961,0
AG2402MALE20,120,0,2,experiment,100,D5,49.3558341,1
AG2402MALE20,120,0,4,experiment,87,D4,23.1185485,0
AG2402MALE20,120,0,3,experiment,83,D4,77.657682,0
AG2402MALE20,120,0,3,experiment,100,D5,47.9867876,1
AG2402MALE20,120,0,2,experiment,50,D2,41.1070183,0
AG2402MALE20,120,0,4,experiment,87,D4,44.9016042,0
AG2402MALE20,120,0,2,experiment,0,D0,25.2627011,0
AJ0710FEMALE24,150,1,2,training,0,D0,,0
AJ0710FEMALE24,150,1,2,training,100,D5,,1
AJ0710FEMALE24,120,0,2,experiment,,NO,,0
AJ0710FEMALE24,120,0,2,experiment,75,D4,24.2916277,0
AJ0710FEMALE24,120,0,2,experiment,100,D5,75.0516,1
AJ0710FEMALE24,120,0,4,experiment,25,D2,60.8710566,0
AJ0710FEMALE24,120,0,3,experiment,100,D5,64.7734966,1
AJ0710FEMALE24,120,0,4,experiment,25,D2,33.3648086,0
AJ0710FEMALE24,120,0,3,experiment,75,D3,82.0026677,0
AJ0710FEMALE24,120,0,4,experiment,12,D1,78.6557211,0
AJ0710FEMALE24,120,0,3,experiment,16,D1,67.4542824,0
AJ0710FEMALE24,120,0,4,experiment,100,D5,80.7530351,1
AJ0710FEMALE24,120,0,3,experiment,100,D5,86.4345024,1
AJ0710FEMALE24,120,0,3,experiment,100,D5,97.7137106,1
AJ0710FEMALE24,120,0,2,experiment,50,D2,82.4549845,0
AJ0710FEMALE24,120,0,4,experiment,100,D5,103.916911,1
AJ0710FEMALE24,120,0,2,experiment,100,D5,63.3783608,1
AJ0710FEMALE24,120,0,4,experiment,87,D4,73.0023758,0
AJ0710FEMALE24,120,0,2,experiment,63,D3,56.5862528,0
AJ0710FEMALE24,120,0,3,experiment,100,D5,92.5535583,1
AJ1204MALE20,150,1,2,training,25,D1,,0
AJ1204MALE20,150,1,2,training,25,D1,,0
AJ1204MALE20,120,0,2,experiment,50,D2,51.7508559,0
AJ1204MALE20,120,0,4,experiment,87,D4,22.7013765,0
AJ1204MALE20,120,0,3,experiment,75,D3,39.5764475,0
AJ1204MALE20,120,0,2,experiment,25,D1,26.2337218,0
AJ1204MALE20,120,0,3,experiment,83,D4,11.7435386,0
AJ1204MALE20,120,0,2,experiment,0,D0,,0
AJ1204MALE20,120,0,3,experiment,16,D1,,0
AJ1204MALE20,120,0,2,experiment,75,D4,41.5479077,0
AJ1204MALE20,120,0,4,experiment,81,D3,54.8207261,0
AJ1204MALE20,120,0,4,experiment,81,D3,29.2580609,0
AJ1204MALE20,120,0,4,experiment,81,D3,34.3481186,0
AJ1204MALE20,120,0,2,experiment,100,D5,49.7964722,1
AJ1204MALE20,120,0,4,experiment,100,D5,17.4847577,1
AJ1204MALE20,120,0,3,experiment,100,D5,43.3164951,1
AJ1204MALE20,120,0,2,experiment,25,D1,88.4233794,0
AJ1204MALE20,120,0,3,experiment,100,D5,21.4075567,1
AJ1204MALE20,120,0,3,experiment,100,D5,51.1808175,1
AJ1204MALE20,120,0,4,experiment,100,D5,36.2377647,1
AK0111FEMALE34,150,1,2,training,50,D2,,0
AK0111FEMALE34,150,1,2,training,50,D2,,0
AK0111FEMALE34,120,0,4,experiment,100,D5,105.728586,1
AK0111FEMALE34,120,0,2,experiment,100,D5,104.74569,1
AK0111FEMALE34,120,0,2,experiment,100,D5,100.145076,1
AK0111FEMALE34,120,0,3,experiment,83,D4,54.7202433,0
AK0111FEMALE34,120,0,4,experiment,100,D5,55.2747578,1
AK0111FEMALE34,120,0,2,experiment,25,D1,83.842866,0
AK0111FEMALE34,120,0,2,experiment,25,D1,71.4998151,0
AK0111FEMALE34,120,0,2,experiment,63,D3,56.9652073,0
AK0111FEMALE34,120,0,3,experiment,100,D5,96.8343784,1
AK0111FEMALE34,120,0,2,experiment,25,D1,71.3996789,0
AK0111FEMALE34,120,0,3,experiment,100,D5,42.6203018,1
AK0111FEMALE34,120,0,3,experiment,100,D5,49.9003443,1
AK0111FEMALE34,120,0,4,experiment,100,D5,92.9437105,1
AK0111FEMALE34,120,0,4,experiment,100,D5,105.133025,1
AK0111FEMALE34,120,0,4,experiment,25,D2,66.484295,0
AK0111FEMALE34,120,0,4,experiment,81,D3,82.8674718,0
AK0111FEMALE34,120,0,3,experiment,100,D5,63.2183839,1
AK0111FEMALE34,120,0,3,experiment,0,D0,76.6348422,0
AK0208FEMALE21,150,1,2,training,75,D4,,0
AK0208FEMALE21,150,1,2,training,100,D5,,1
AK0208FEMALE21,120,0,2,experiment,100,D5,105.810077,1
AK0208FEMALE21,120,0,3,experiment,83,D4,72.2673051,0
AK0208FEMALE21,120,0,2,experiment,100,D5,58.6224054,1
AK0208FEMALE21,120,0,4,experiment,100,D5,77.4478604,1
AK0208FEMALE21,120,0,4,experiment,100,D5,40.6916435,1
AK0208FEMALE21,120,0,2,experiment,100,D5,27.4183947,1
AK0208FEMALE21,120,0,4,experiment,87,D4,26.866256,0
AK0208FEMALE21,120,0,3,experiment,16,D1,35.7315533,0
AK0208FEMALE21,120,0,4,experiment,81,D3,28.9092695,0
AK0208FEMALE21,120,0,2,experiment,100,D5,42.0656404,1
AK0208FEMALE21,120,0,3,experiment,100,D5,68.4704661,1
AK0208FEMALE21,120,0,3,experiment,75,D3,46.7022108,0
AK0208FEMALE21,120,0,4,experiment,100,D5,63.5795469,1
AK0208FEMALE21,120,0,3,experiment,100,D5,41.3579912,1
AK0208FEMALE21,120,0,2,experiment,50,D2,46.6712518,0
AK0208FEMALE21,120,0,4,experiment,100,D5,60.1160852,1
AK0208FEMALE21,120,0,3,experiment,75,D3,27.649881,0
AK0208FEMALE21,120,0,2,experiment,100,D5,29.8321841,1
AK1103MALE20,150,1,2,training,,NO,,0
AK1103MALE20,150,1,2,training,,NO,,0
AK1103MALE20,120,0,3,experiment,100,D5,34.6831064,1
AK1103MALE20,120,0,2,experiment,63,D3,98.442502,0
AK1103MALE20,120,0,3,experiment,,NO,,0
AK1103MALE20,120,0,4,experiment,100,D5,28.6844848,1
AK1103MALE20,120,0,3,experiment,33,D2,53.6982379,0
AK1103MALE20,120,0,2,experiment,100,D5,41.0925275,1
AK1103MALE20,120,0,2,experiment,75,D4,90.649895,0
AK1103MALE20,120,0,4,experiment,,NO,,0
AK1103MALE20,120,0,4,experiment,,NO,,0
AK1103MALE20,120,0,4,experiment,,NO,,0
AK1103MALE20,120,0,4,experiment,87,D4,93.5974235,0
AK1103MALE20,120,0,3,experiment,100,D5,61.6176759,1
AK1103MALE20,120,0,3,experiment,83,D4,53.841608,0
AK1103MALE20,120,0,3,experiment,,NO,,0
AK1103MALE20,120,0,2,experiment,,NO,,0
AK1103MALE20,120,0,2,experiment,50,D2,53.46632,0
AK1103MALE20,120,0,2,experiment,50,D2,28.8560574,0
AK1103MALE20,120,0,4,experiment,100,D5,28.4808676,1
AK2102MALE20,150,1,2,training,50,D2,,0
AK2102MALE20,150,1,2,training,100,D5,,1
AK2102MALE20,120,0,3,experiment,,NO,,0
AK2102MALE20,120,0,4,experiment,,NO,,0
AK2102MALE20,120,0,3,experiment,,NO,,0
AK2102MALE20,120,0,3,experiment,,NO,,0
AK2102MALE20,120,0,4,experiment,100,D5,60.2529375,1
AK2102MALE20,120,0,4,experiment,,NO,,0
AK2102MALE20,120,0,3,experiment,100,D5,81.5029045,1
AK2102MALE20,120,0,2,experiment,,NO,,0
AK2102MALE20,120,0,2,experiment,100,D5,84.4884112,1
AK2102MALE20,120,0,2,experiment,50,D2,59.7543007,0
AK2102MALE20,120,0,4,experiment,100,D5,67.6361864,1
AK2102MALE20,120,0,4,experiment,100,D5,48.307738,1
AK2102MALE20,120,0,4,experiment,,NO,,0
AK2102MALE20,120,0,3,experiment,100,D5,36.6082483,1
AK2102MALE20,120,0,2,experiment,100,D5,18.5442767,1
AK2102MALE20,120,0,2,experiment,0,D0,56.4829435,0
AK2102MALE20,120,0,3,experiment,100,D5,56.5498207,1
AK2102MALE20,120,0,2,experiment,100,D5,87.2453154,1
AK2506FEMALE22,150,1,2,training,75,D4,,0
AK2506FEMALE22,150,1,2,training,0,D0,,0
AK2506FEMALE22,120,0,3,experiment,16,D1,117.040474,0
AK2506FEMALE22,120,0,3,experiment,100,D5,79.0556576,1
AK2506FEMALE22,120,0,2,experiment,25,D1,80.0596251,0
AK2506FEMALE22,120,0,3,experiment,33,D2,83.606293,0
AK2506FEMALE22,120,0,2,experiment,,NO,,0
AK2506FEMALE22,120,0,2,experiment,63,D3,109.07173,0
AK2506FEMALE22,120,0,4,experiment,87,D4,109.868691,0
AK2506FEMALE22,120,0,4,experiment,81,D3,99.2174067,0
AK2506FEMALE22,120,0,3,experiment,83,D4,93.6078942,0
AK2506FEMALE22,120,0,2,experiment,50,D2,60.9882447,0
AK2506FEMALE22,120,0,2,experiment,0,D0,47.230928,0
AK2506FEMALE22,120,0,2,experiment,100,D5,64.4904347,1
AK2506FEMALE22,120,0,3,experiment,100,D5,24.9130726,1
AK2506FEMALE22,120,0,4,experiment,87,D4,44.7102484,0
AK2506FEMALE22,120,0,3,experiment,33,D2,35.3219776,0
AK2506FEMALE22,120,0,4,experiment,25,D2,40.8096636,0
AK2506FEMALE22,120,0,4,experiment,81,D3,65.8825556,0
AK2506FEMALE22,120,0,4,experiment,0,D0,34.0564951,0
AK2611MALE28,150,1,2,training,0,D0,,0
AK2611MALE28,150,1,2,training,100,D5,,1
AK2611MALE28,120,0,4,experiment,,NO,,0
AK2611MALE28,120,0,4,experiment,100,D5,72.9513458,1
AK2611MALE28,120,0,3,experiment,0,D0,100.0536,0
AK2611MALE28,120,0,2,experiment,50,D2,90.0620565,0
AK2611MALE28,120,0,3,experiment,83,D4,30.6392852,0
AK2611MALE28,120,0,4,experiment,81,D3,108.416292,0
AK2611MALE28,120,0,3,experiment,100,D5,26.4331704,1
AK2611MALE28,120,0,4,experiment,87,D4,89.2038643,0
AK2611MALE28,120,0,2,experiment,63,D3,95.2099689,0
AK2611MALE28,120,0,3,experiment,16,D1,107.53273,0
AK2611MALE28,120,0,3,experiment,75,D3,11.5276843,0
AK2611MALE28,120,0,2,experiment,100,D5,40.6205006,1
AK2611MALE28,120,0,4,experiment,87,D4,,0
AK2611MALE28,120,0,3,experiment,100,D5,35.451328,1
AK2611MALE28,120,0,2,experiment,25,D1,56.3946018,0
AK2611MALE28,120,0,2,experiment,100,D5,25.4464476,1
AK2611MALE28,120,0,4,experiment,100,D5,26.5633417,1
AK2611MALE28,120,0,2,experiment,63,D3,65.4238217,0
AM0902MALE20,150,1,2,training,25,D1,,0
AM0902MALE20,150,1,2,training,0,D0,,0
AM0902MALE20,120,0,4,experiment,100,D5,77.8304584,1
AM0902MALE20,120,0,3,experiment,100,D5,53.6344105,1
AM0902MALE20,120,0,3,experiment,75,D3,35.3035553,0
AM0902MALE20,120,0,2,experiment,100,D5,48.246887,1
AM0902MALE20,120,0,2,experiment,25,D1,,0
AM0902MALE20,120,0,3,experiment,100,D5,34.3980954,1
AM0902MALE20,120,0,2,experiment,100,D5,,0
AM0902MALE20,120,0,3,experiment,16,D1,12.7768233,0
AM0902MALE20,120,0,4,experiment,25,D2,,0
AM0902MALE20,120,0,3,experiment,16,D1,10.817825,0
AM0902MALE20,120,0,4,experiment,100,D5,21.8222468,1
AM0902MALE20,120,0,2,experiment,50,D2,22.1418597,0
AM0902MALE20,120,0,2,experiment,75,D4,,0
AM0902MALE20,120,0,4,experiment,81,D3,,0
AM0902MALE20,120,0,3,experiment,100,D5,,0
AM0902MALE20,120,0,4,experiment,100,D5,13.9361149,1
AM0902MALE20,120,0,4,experiment,25,D2,12.8982689,0
AM0902MALE20,120,0,2,experiment,100,D5,41.331692,1
AM1208MALE20,150,1,2,training,100,D5,,1
AM1208MALE20,150,1,2,training,100,D5,,1
AM1208MALE20,120,0,3,experiment,100,D5,76.757419,1
AM1208MALE20,120,0,2,experiment,100,D5,73.5055128,1
AM1208MALE20,120,0,3,experiment,100,D5,96.4093999,1
AM1208MALE20,120,0,3,experiment,100,D5,63.7698825,1
AM1208MALE20,120,0,2,experiment,,NO,,0
AM1208MALE20,120,0,3,experiment,100,D5,87.0153845,1
AM1208MALE20,120,0,4,experiment,100,D5,85.4517209,1
AM1208MALE20,120,0,4,experiment,100,D5,78.0163328,1
AM1208MALE20,120,0,4,experiment,100,D5,66.6673159,1
AM1208MALE20,120,0,3,experiment,100,D5,86.4275128,1
AM1208MALE20,120,0,2,experiment,100,D5,67.1220425,1
AM1208MALE20,120,0,4,experiment,100,D5,73.441901,1
AM1208MALE20,120,0,3,experiment,100,D5,49.4019185,1
AM1208MALE20,120,0,2,experiment,100,D5,64.3475421,1
AM1208MALE20,120,0,4,experiment,100,D5,55.6946062,1
AM1208MALE20,120,0,2,experiment,100,D5,41.9732841,1
AM1208MALE20,120,0,2,experiment,100,D5,47.2883872,1
AM1208MALE20,120,0,4,experiment,100,D5,47.915108,1
AP0610MALE20,150,1,2,training,25,D1,,0
AP0610MALE20,150,1,2,training,100,D5,,1
AP0610MALE20,120,0,3,experiment,100,D5,25.1036143,1
AP0610MALE20,120,0,4,experiment,0,D0,32.1903961,0
AP0610MALE20,120,0,2,experiment,100,D5,40.1090509,1
AP0610MALE20,120,0,2,experiment,75,D4,62.2694904,0
AP0610MALE20,120,0,4,experiment,87,D4,39.4860345,0
AP0610MALE20,120,0,2,experiment,100,D5,42.6566354,1
AP0610MALE20,120,0,3,experiment,75,D3,41.4834632,0
AP0610MALE20,120,0,3,experiment,100,D5,33.5945578,1
AP0610MALE20,120,0,2,experiment,100,D5,42.9441705,1
AP0610MALE20,120,0,4,experiment,87,D4,24.6578001,0
AP0610MALE20,120,0,2,experiment,75,D4,57.9459989,0
AP0610MALE20,120,0,4,experiment,81,D3,46.7640826,0
AP0610MALE20,120,0,4,experiment,87,D4,50.6186984,0
AP0610MALE20,120,0,2,experiment,100,D5,45.4985348,1
AP0610MALE20,120,0,3,experiment,100,D5,56.8577336,1
AP0610MALE20,120,0,4,experiment,81,D3,28.8395469,0
AP0610MALE20,120,0,3,experiment,83,D4,58.0396653,0
AP0610MALE20,120,0,3,experiment,33,D2,49.3595138,0
AP0812MALE20,150,1,2,training,75,D4,,0
AP0812MALE20,150,1,2,training,75,D4,,0
AP0812MALE20,120,0,3,experiment,83,D4,49.1792681,0
AP0812MALE20,120,0,4,experiment,81,D3,67.8725211,0
AP0812MALE20,120,0,3,experiment,33,D2,32.889446,0
AP0812MALE20,120,0,4,experiment,81,D3,21.4143427,0
AP0812MALE20,120,0,4,experiment,0,D0,58.6315526,0
AP0812MALE20,120,0,4,experiment,25,D2,16.0585641,0
AP0812MALE20,120,0,3,experiment,0,D0,46.6625734,0
AP0812MALE20,120,0,2,experiment,0,D0,14.7352713,0
AP0812MALE20,120,0,3,experiment,33,D2,52.9435088,0
AP0812MALE20,120,0,2,experiment,75,D4,15.1045259,0
AP0812MALE20,120,0,4,experiment,25,D2,,0
AP0812MALE20,120,0,2,experiment,0,D0,41.5324983,0
AP0812MALE20,120,0,3,experiment,0,D0,46.6867992,0
AP0812MALE20,120,0,2,experiment,75,D4,11.4773529,0
AP0812MALE20,120,0,4,experiment,12,D1,14.1987975,0
AP0812MALE20,120,0,2,experiment,0,D0,45.7979418,0
AP0812MALE20,120,0,3,experiment,83,D4,34.9117566,0
AP0812MALE20,120,0,2,experiment,50,D2,,0
AP1108MALE20,150,1,2,training,0,D0,,0
AP1108MALE20,150,1,2,training,100,D5,,1
AP1108MALE20,120,0,3,experiment,16,D1,115.668611,0
AP1108MALE20,120,0,3,experiment,16,D1,53.1312699,0
AP1108MALE20,120,0,2,experiment,63,D3,115.932465,0
AP1108MALE20,120,0,4,experiment,81,D3,95.0322985,0
AP1108MALE20,120,0,3,experiment,33,D2,67.3082884,0
AP1108MALE20,120,0,4,experiment,87,D4,110.526753,0
AP1108MALE20,120,0,2,experiment,100,D5,113.621539,1
AP1108MALE20,120,0,2,experiment,25,D1,66.1563751,0
AP1108MALE20,120,0,3,experiment,100,D5,73.8230467,1
AP1108MALE20,120,0,4,experiment,100,D5,73.4000605,1
AP1108MALE20,120,0,2,experiment,100,D5,82.3841425,1
AP1108MALE20,120,0,4,experiment,87,D4,,0
AP1108MALE20,120,0,4,experiment,25,D2,106.615736,0
AP1108MALE20,120,0,3,experiment,100,D5,86.5609606,1
AP1108MALE20,120,0,2,experiment,100,D5,51.1631923,1
AP1108MALE20,120,0,4,experiment,100,D5,104.387058,1
AP1108MALE20,120,0,2,experiment,100,D5,88.0954175,1
AP1108MALE20,120,0,3,experiment,83,D4,101.852379,0
AP1205MALE20,150,1,2,training,50,D2,,0
AP1205MALE20,150,1,2,training,100,D5,,1
AP1205MALE20,120,0,2,experiment,0,D0,35.1517769,0
AP1205MALE20,120,0,3,experiment,33,D2,18.0431931,0
AP1205MALE20,120,0,4,experiment,25,D2,13.769069,0
AP1205MALE20,120,0,4,experiment,100,D5,34.0870171,1
AP1205MALE20,120,0,4,experiment,100,D5,36.3957105,1
AP1205MALE20,120,0,3,experiment,100,D5,28.1088441,1
AP1205MALE20,120,0,4,experiment,100,D5,,0
AP1205MALE20,120,0,2,experiment,25,D1,56.2648587,0
AP1205MALE20,120,0,3,experiment,75,D3,74.4940375,0
AP1205MALE20,120,0,3,experiment,75,D3,40.7440236,0
AP1205MALE20,120,0,2,experiment,100,D5,50.1161869,1
AP1205MALE20,120,0,4,experiment,100,D5,41.7631418,1
AP1205MALE20,120,0,2,experiment,100,D5,33.0891895,1
AP1205MALE20,120,0,3,experiment,100,D5,20.3529017,1
AP1205MALE20,120,0,4,experiment,100,D5,27.592059,1
AP1205MALE20,120,0,3,experiment,100,D5,50.6227228,1
AP1205MALE20,120,0,2,experiment,100,D5,28.2372853,1
AP1205MALE20,120,0,2,experiment,100,D5,22.1167328,1
AP2010FEMALE20,150,1,2,training,50,D2,,0
AP2010FEMALE20,150,1,2,training,25,D1,,0
AP2010FEMALE20,120,0,3,experiment,83,D4,82.9702442,0
AP2010FEMALE20,120,0,4,experiment,100,D5,103.772701,1
AP2010FEMALE20,120,0,2,experiment,100,D5,74.5117088,1
AP2010FEMALE20,120,0,2,experiment,63,D3,90.2575745,0
AP2010FEMALE20,120,0,2,experiment,100,D5,74.9855493,1
AP2010FEMALE20,120,0,4,experiment,87,D4,23.0255311,0
AP2010FEMALE20,120,0,2,experiment,100,D5,18.7853034,1
AP2010FEMALE20,120,0,4,experiment,87,D4,89.4440736,0
AP2010FEMALE20,120,0,3,experiment,100,D5,49.7690948,1
AP2010FEMALE20,120,0,3,experiment,100,D5,31.0801177,1
AP2010FEMALE20,120,0,3,experiment,100,D5,58.7026694,1
AP2010FEMALE20,120,0,2,experiment,75,D4,46.7811006,0
AP2010FEMALE20,120,0,3,experiment,100,D5,33.4646646,1
AP2010FEMALE20,120,0,4,experiment,0,D0,32.4804452,0
AP2010FEMALE20,120,0,2,experiment,75,D4,39.1775089,0
AP2010FEMALE20,120,0,4,experiment,100,D5,15.6978358,1
AP2010FEMALE20,120,0,4,experiment,25,D2,43.2392163,0
AP2010FEMALE20,120,0,3,experiment,75,D3,28.252036,0
AP3101MALE20,150,1,2,training,25,D1,,0
AP3101MALE20,150,1,2,training,100,D5,,1
AP3101MALE20,120,0,4,experiment,100,D5,94.8136461,1
AP3101MALE20,120,0,3,experiment,83,D4,65.540402,0
AP3101MALE20,120,0,3,experiment,83,D4,61.0106271,0
AP3101MALE20,120,0,2,experiment,25,D1,50.0291723,0
AP3101MALE20,120,0,4,experiment,81,D3,41.5528752,0
AP3101MALE20,120,0,4,experiment,0,D0,,0
AP3101MALE20,120,0,2,experiment,100,D5,65.7177907,1
AP3101MALE20,120,0,3,experiment,0,D0,,0
AP3101MALE20,120,0,2,experiment,25,D1,35.6151443,0
AP3101MALE20,120,0,2,experiment,0,D0,50.3613388,0
AP3101MALE20,120,0,2,experiment,50,D2,29.0867565,0
AP3101MALE20,120,0,3,experiment,100,D5,39.664328,1
AP3101MALE20,120,0,4,experiment,81,D3,10.4588658,0
AP3101MALE20,120,0,4,experiment,0,D0,15.5314889,0
AP3101MALE20,120,0,3,experiment,100,D5,37.1697116,1
AP3101MALE20,120,0,2,experiment,75,D4,77.7763601,0
AP3101MALE20,120,0,3,experiment,33,D2,11.0994977,0
AP3101MALE20,120,0,4,experiment,12,D1,21.4204072,0
AR1703MALE20,150,1,2,training,75,D4,,0
AR1703MALE20,150,1,2,training,100,D5,,1
AR1703MALE20,120,0,2,experiment,100,D5,79.010101,1
AR1703MALE20,120,0,2,experiment,100,D5,92.35284,1
AR1703MALE20,120,0,3,experiment,75,D3,66.9592194,0
AR1703MALE20,120,0,2,experiment,63,D3,,0
AR1703MALE20,120,0,3,experiment,83,D4,66.8239314,0
AR1703MALE20,120,0,4,experiment,100,D5,70.6459752,1
AR1703MALE20,120,0,4,experiment,100,D5,78.7858372,1
AR1703MALE20,120,0,4,experiment,100,D5,65.2493905,1
AR1703MALE20,120,0,3,experiment,33,D2,41.9931906,0
AR1703MALE20,120,0,2,experiment,100,D5,52.2469418,1
AR1703MALE20,120,0,3,experiment,100,D5,50.8456559,1
AR1703MALE20,120,0,3,experiment,83,D4,95.4872901,0
AR1703MALE20,120,0,4,experiment,100,D5,66.824717,1
AR1703MALE20,120,0,2,experiment,100,D5,41.5462314,1
AR1703MALE20,120,0,4,experiment,87,D4,54.5766921,0
AR1703MALE20,120,0,4,experiment,100,D5,51.4541415,1
AR1703MALE20,120,0,2,experiment,100,D5,46.869681,1
AR1703MALE20,120,0,3,experiment,100,D5,47.9592271,1
AS0201MALE20,150,1,2,training,0,D0,,0
AS0201MALE20,150,1,2,training,75,D4,,0
AS0201MALE20,120,0,4,experiment,0,D0,99.8791125,0
AS0201MALE20,120,0,4,experiment,87,D4,55.2874191,0
AS0201MALE20,120,0,2,experiment,0,D0,117.186219,0
AS0201MALE20,120,0,4,experiment,100,D5,80.449302,1
AS0201MALE20,120,0,3,experiment,33,D2,73.8609075,0
AS0201MALE20,120,0,3,experiment,16,D1,38.6268391,0
AS0201MALE20,120,0,3,experiment,100,D5,20.6941895,1
AS0201MALE20,120,0,2,experiment,50,D2,16.9363005,0
AS0201MALE20,120,0,2,experiment,100,D5,23.9800281,1
AS0201MALE20,120,0,2,experiment,50,D2,29.0084589,0
AS0201MALE20,120,0,3,experiment,16,D1,49.6789338,0
AS0201MALE20,120,0,2,experiment,75,D4,56.3171442,0
AS0201MALE20,120,0,4,experiment,87,D4,75.9146083,0
AS0201MALE20,120,0,3,experiment,83,D4,72.8364818,0
AS0201MALE20,120,0,4,experiment,81,D3,20.1502221,0
AS0201MALE20,120,0,2,experiment,100,D5,51.0109811,1
AS0201MALE20,120,0,4,experiment,0,D0,24.9718566,0
AS0201MALE20,120,0,3,experiment,83,D4,30.0545046,0
AS1204MALE20,150,1,2,training,100,D5,,1
AS1204MALE20,150,1,2,training,100,D5,,1
AS1204MALE20,120,0,2,experiment,100,D5,53.3357002,1
AS1204MALE20,120,0,3,experiment,83,D4,59.8385619,0
AS1204MALE20,120,0,3,experiment,75,D3,37.407738,0
AS1204MALE20,120,0,3,experiment,75,D3,86.5864128,0
AS1204MALE20,120,0,3,experiment,16,D1,46.4764395,0
AS1204MALE20,120,0,2,experiment,50,D2,40.1620497,0
AS1204MALE20,120,0,3,experiment,100,D5,44.7029672,1
AS1204MALE20,120,0,2,experiment,100,D5,35.9950488,1
AS1204MALE20,120,0,4,experiment,100,D5,53.0456862,1
AS1204MALE20,120,0,4,experiment,81,D3,60.543005,0
AS1204MALE20,120,0,4,experiment,81,D3,48.6658764,0
AS1204MALE20,120,0,2,experiment,100,D5,34.8201524,1
AS1204MALE20,120,0,4,experiment,12,D1,66.1869421,0
AS1204MALE20,120,0,4,experiment,81,D3,45.7340429,0
AS1204MALE20,120,0,2,experiment,63,D3,57.7681552,0
AS1204MALE20,120,0,2,experiment,50,D2,75.6216835,0
AS1204MALE20,120,0,4,experiment,87,D4,61.1596963,0
AS1204MALE20,120,0,3,experiment,100,D5,32.2221965,1
AS2903MALE20,150,1,2,training,50,D2,,0
AS2903MALE20,150,1,2,training,50,D2,,0
AS2903MALE20,120,0,4,experiment,100,D5,95.9430258,1
AS2903MALE20,120,0,3,experiment,100,D5,72.8026734,1
AS2903MALE20,120,0,3,experiment,100,D5,87.6019111,1
AS2903MALE20,120,0,2,experiment,100,D5,109.553867,1
AS2903MALE20,120,0,2,experiment,100,D5,70.5613909,1
AS2903MALE20,120,0,4,experiment,87,D4,109.907739,0
AS2903MALE20,120,0,4,experiment,100,D5,78.5830926,1
AS2903MALE20,120,0,2,experiment,25,D1,89.0031299,0
AS2903MALE20,120,0,2,experiment,63,D3,90.4924156,0
AS2903MALE20,120,0,4,experiment,87,D4,77.8520544,0
AS2903MALE20,120,0,3,experiment,75,D3,86.451422,0
AS2903MALE20,120,0,3,experiment,75,D3,49.4878315,0
AS2903MALE20,120,0,3,experiment,100,D5,77.5969119,1
AS2903MALE20,120,0,2,experiment,100,D5,44.2772353,1
AS2903MALE20,120,0,4,experiment,12,D1,23.4717822,0
AS2903MALE20,120,0,4,experiment,81,D3,28.5723532,0
AS2903MALE20,120,0,2,experiment,75,D4,45.824004,0
AS2903MALE20,120,0,3,experiment,0,D0,,0
AW0803MALE20,150,1,2,training,0,D0,,0
AW0803MALE20,150,1,2,training,100,D5,,1
AW0803MALE20,120,0,2,experiment,63,D3,37.8290046,0
AW0803MALE20,120,0,4,experiment,0,D0,51.6363367,0
AW0803MALE20,120,0,3,experiment,33,D2,33.0492891,0
AW0803MALE20,120,0,4,experiment,25,D2,28.5037757,0
AW0803MALE20,120,0,4,experiment,12,D1,43.2007347,0
AW0803MALE20,120,0,2,experiment,25,D1,70.6740513,0
AW0803MALE20,120,0,4,experiment,12,D1,41.9919115,0
AW0803MALE20,120,0,4,experiment,12,D1,40.1883723,0
AW0803MALE20,120,0,3,experiment,100,D5,34.3464285,1
AW0803MALE20,120,0,3,experiment,33,D2,80.670192,0
AW0803MALE20,120,0,3,experiment,75,D3,54.6577684,0
AW0803MALE20,120,0,2,experiment,63,D3,37.1844702,0
AW0803MALE20,120,0,3,experiment,75,D3,20.2692362,0
AW0803MALE20,120,0,2,experiment,75,D4,57.2911962,0
AW0803MALE20,120,0,4,experiment,87,D4,27.3607782,0
AW0803MALE20,120,0,2,experiment,0,D0,88.8967912,0
AW0803MALE20,120,0,3,experiment,0,D0,25.3127995,0
AW0803MALE20,120,0,2,experiment,0,D0,,0
AW0903MALE20,150,1,2,training,100,D5,,1
AW0903MALE20,150,1,2,training,100,D5,,1
AW0903MALE20,120,0,2,experiment,100,D5,17.2083933,1
AW0903MALE20,120,0,4,experiment,100,D5,11.9576612,1
AW0903MALE20,120,0,4,experiment,0,D0,,0
AW0903MALE20,120,0,4,experiment,12,D1,18.5993361,0
AW0903MALE20,120,0,3,experiment,75,D3,,0
AW0903MALE20,120,0,2,experiment,25,D1,15.9304224,0
AW0903MALE20,120,0,4,experiment,87,D4,23.6260368,0
AW0903MALE20,120,0,2,experiment,25,D1,39.4701443,0
AW0903MALE20,120,0,3,experiment,83,D4,26.0680353,0
AW0903MALE20,120,0,3,experiment,100,D5,24.9687693,1
AW0903MALE20,120,0,4,experiment,81,D3,14.5928636,0
AW0903MALE20,120,0,2,experiment,50,D2,52.1645212,0
AW0903MALE20,120,0,3,experiment,0,D0,31.4140394,0
AW0903MALE20,120,0,3,experiment,16,D1,29.4060582,0
AW0903MALE20,120,0,2,experiment,75,D4,23.062607,0
AW0903MALE20,120,0,4,experiment,25,D2,30.7616325,0
AW0903MALE20,120,0,2,experiment,25,D1,17.513849,0
AW0903MALE20,120,0,3,experiment,83,D4,10.3848593,0
AW2210FEMALE22,150,1,2,training,100,D5,,1
AW2210FEMALE22,150,1,2,training,75,D4,,0
AW2210FEMALE22,120,0,4,experiment,100,D5,107.623748,1
AW2210FEMALE22,120,0,3,experiment,100,D5,60.6758959,1
AW2210FEMALE22,120,0,2,experiment,100,D5,86.2004592,1
AW2210FEMALE22,120,0,3,experiment,100,D5,77.7864053,1
AW2210FEMALE22,120,0,2,experiment,100,D5,69.1107536,1
AW2210FEMALE22,120,0,3,experiment,16,D1,96.7947506,0
AW2210FEMALE22,120,0,4,experiment,81,D3,69.4857878,0
AW2210FEMALE22,120,0,4,experiment,100,D5,31.0948862,1
AW2210FEMALE22,120,0,4,experiment,100,D5,36.0205519,1
AW2210FEMALE22,120,0,2,experiment,100,D5,43.302721,1
AW2210FEMALE22,120,0,3,experiment,33,D2,46.57398,0
AW2210FEMALE22,120,0,4,experiment,81,D3,60.9642447,0
AW2210FEMALE22,120,0,3,experiment,83,D4,34.0496837,0
AW2210FEMALE22,120,0,2,experiment,50,D2,57.1130015,0
AW2210FEMALE22,120,0,3,experiment,75,D3,31.9890727,0
AW2210FEMALE22,120,0,4,experiment,100,D5,41.3976734,1
AW2210FEMALE22,120,0,2,experiment,100,D5,17.4342485,1
AW2210FEMALE22,120,0,2,experiment,50,D2,40.0747575,0
BA0412MALE20,150,1,2,training,75,D4,,0
BA0412MALE20,150,1,2,training,25,D1,,0
BA0412MALE20,120,0,4,experiment,12,D1,25.8787712,0
BA0412MALE20,120,0,3,experiment,100,D5,20.9915848,1
BA0412MALE20,120,0,4,experiment,0,D0,17.6901438,0
BA0412MALE20,120,0,2,experiment,100,D5,18.3553829,1
BA0412MALE20,120,0,2,experiment,100,D5,23.1704873,1
BA0412MALE20,120,0,4,experiment,100,D5,27.2047135,1
BA0412MALE20,120,0,3,experiment,0,D0,18.8678618,0
BA0412MALE20,120,0,3,experiment,75,D3,,0
BA0412MALE20,120,0,2,experiment,63,D3,11.3361464,0
BA0412MALE20,120,0,4,experiment,0,D0,20.6196675,0
BA0412MALE20,120,0,2,experiment,50,D2,,0
BA0412MALE20,120,0,3,experiment,100,D5,15.5826167,1
BA0412MALE20,120,0,4,experiment,0,D0,12.0558817,0
BA0412MALE20,120,0,3,experiment,16,D1,13.915377,0
BA0412MALE20,120,0,2,experiment,75,D4,10.1007102,0
BA0412MALE20,120,0,2,experiment,0,D0,,0
BA0412MALE20,120,0,3,experiment,16,D1,15.7403475,0
BA0412MALE20,120,0,4,experiment,0,D0,16.1898828,0
BB1401FEMALE27,150,1,2,training,25,D1,,0
BB1401FEMALE27,150,1,2,training,75,D4,,0
BB1401FEMALE27,120,0,3,experiment,100,D5,86.3513884,1
BB1401FEMALE27,120,0,4,experiment,81,D3,68.64736,0
BB1401FEMALE27,120,0,4,experiment,0,D0,93.7655366,0
BB1401FEMALE27,120,0,4,experiment,100,D5,34.0486887,1
BB1401FEMALE27,120,0,2,experiment,0,D0,17.9622429,0
BB1401FEMALE27,120,0,2,experiment,63,D3,37.2083395,0
BB1401FEMALE27,120,0,3,experiment,0,D0,34.5668435,0
BB1401FEMALE27,120,0,3,experiment,100,D5,,0
BB1401FEMALE27,120,0,2,experiment,0,D0,43.1968566,0
BB1401FEMALE27,120,0,4,experiment,12,D1,23.7327535,0
BB1401FEMALE27,120,0,3,experiment,100,D5,23.013679,1
BB1401FEMALE27,120,0,3,experiment,75,D3,36.0630187,0
BB1401FEMALE27,120,0,4,experiment,12,D1,17.8068396,0
BB1401FEMALE27,120,0,2,experiment,75,D4,51.6354817,0
BB1401FEMALE27,120,0,2,experiment,25,D1,45.6215012,0
BB1401FEMALE27,120,0,3,experiment,100,D5,38.2842867,1
BB1401FEMALE27,120,0,2,experiment,100,D5,40.0452096,1
BB1401FEMALE27,120,0,4,experiment,100,D5,40.218856,1
BC2111MALE20,150,1,2,training,100,D5,,1
BC2111MALE20,150,1,2,training,75,D4,,0
BC2111MALE20,120,0,2,experiment,100,D5,70.6820548,1
BC2111MALE20,120,0,4,experiment,100,D5,79.6460688,1
BC2111MALE20,120,0,3,experiment,33,D2,111.021365,0
BC2111MALE20,120,0,2,experiment,25,D1,114.417843,0
BC2111MALE20,120,0,2,experiment,75,D4,75.5008831,0
BC2111MALE20,120,0,4,experiment,100,D5,49.6186505,1
BC2111MALE20,120,0,4,experiment,87,D4,67.5726677,0
BC2111MALE20,120,0,2,experiment,100,D5,58.2179372,1
BC2111MALE20,120,0,3,experiment,100,D5,49.1933996,1
BC2111MALE20,120,0,3,experiment,83,D4,65.0743995,0
BC2111MALE20,120,0,3,experiment,100,D5,31.5073778,1
BC2111MALE20,120,0,3,experiment,83,D4,42.5587785,0
BC2111MALE20,120,0,2,experiment,50,D2,48.1233764,0
BC2111MALE20,120,0,2,experiment,63,D3,29.7252614,0
BC2111MALE20,120,0,4,experiment,87,D4,26.4214921,0
BC2111MALE20,120,0,3,experiment,100,D5,36.8913535,1
BC2111MALE20,120,0,4,experiment,87,D4,53.0576975,0
BC2111MALE20,120,0,4,experiment,81,D3,44.2624645,0
BF1707MALE44,150,1,2,training,,NO,,0
BF1707MALE44,150,1,2,training,,NO,,0
BF1707MALE44,120,0,4,experiment,,NO,,0
BF1707MALE44,120,0,3,experiment,,NO,,0
BF1707MALE44,120,0,3,experiment,,NO,,0
BF1707MALE44,120,0,4,experiment,87,D4,114.972984,0
BF1707MALE44,120,0,4,experiment,,NO,,0
BF1707MALE44,120,0,2,experiment,,NO,,0
BF1707MALE44,120,0,4,experiment,,NO,,0
BF1707MALE44,120,0,2,experiment,50,D2,,0
BF1707MALE44,120,0,2,experiment,,NO,,0
BF1707MALE44,120,0,4,experiment,100,D5,110.517514,1
BF1707MALE44,120,0,3,experiment,16,D1,112.013947,0
BF1707MALE44,120,0,4,experiment,100,D5,,0
BF1707MALE44,120,0,2,experiment,,NO,,0
BF1707MALE44,120,0,2,experiment,,NO,,0
BF1707MALE44,120,0,3,experiment,,NO,,0
BF1707MALE44,120,0,2,experiment,100,D5,96.6947112,1
BF1707MALE44,120,0,3,experiment,83,D4,85.2950236,0
BF1707MALE44,120,0,3,experiment,,NO,,0
BJ0203MALE20,150,1,2,training,75,D4,,0
BJ0203MALE20,150,1,2,training,100,D5,,1
BJ0203MALE20,120,0,4,experiment,100,D5,103.050925,1
BJ0203MALE20,120,0,2,experiment,100,D5,65.676151,1
BJ0203MALE20,120,0,2,experiment,100,D5,74.3288316,1
BJ0203MALE20,120,0,2,experiment,100,D5,67.6339889,1
BJ0203MALE20,120,0,4,experiment,100,D5,66.9580993,1
BJ0203MALE20,120,0,3,experiment,16,D1,82.0037273,0
BJ0203MALE20,120,0,4,experiment,81,D3,83.4484712,0
BJ0203MALE20,120,0,4,experiment,87,D4,61.9378977,0
BJ0203MALE20,120,0,2,experiment,100,D5,50.5361868,1
BJ0203MALE20,120,0,2,experiment,100,D5,47.367789,1
BJ0203MALE20,120,0,3,experiment,100,D5,40.4249873,1
BJ0203MALE20,120,0,4,experiment,100,D5,64.7516914,1
BJ0203MALE20,120,0,4,experiment,100,D5,81.3837952,1
BJ0203MALE20,120,0,2,experiment,100,D5,35.5205098,1
BJ0203MALE20,120,0,3,experiment,100,D5,38.5978503,1
BJ0203MALE20,120,0,3,experiment,100,D5,40.5882485,1
BJ0203MALE20,120,0,3,experiment,100,D5,63.3182613,1
BJ0203MALE20,120,0,3,experiment,83,D4,41.4358973,0
BK0703MALE20,150,1,2,training,0,D0,,0
BK0703MALE20,150,1,2,training,100,D5,,1
BK0703MALE20,120,0,3,experiment,100,D5,75.4132607,1
BK0703MALE20,120,0,4,experiment,81,D3,52.4166067,0
BK0703MALE20,120,0,3,experiment,100,D5,110.323179,1
BK0703MALE20,120,0,4,experiment,100,D5,49.2097527,1
BK0703MALE20,120,0,2,experiment,100,D5,77.6292378,1
BK0703MALE20,120,0,4,experiment,,NO,,0
BK0703MALE20,120,0,3,experiment,83,D4,39.9636603,0
BK0703MALE20,120,0,3,experiment,75,D3,52.7765379,0
BK0703MALE20,120,0,4,experiment,81,D3,27.4281991,0
BK0703MALE20,120,0,3,experiment,0,D0,33.0398785,0
BK0703MALE20,120,0,4,experiment,100,D5,26.2232777,1
BK0703MALE20,120,0,2,experiment,100,D5,15.5418683,1
BK0703MALE20,120,0,2,experiment,0,D0,28.5890719,0
BK0703MALE20,120,0,2,experiment,25,D1,46.5142844,0
BK0703MALE20,120,0,2,experiment,75,D4,25.5542549,0
BK0703MALE20,120,0,3,experiment,100,D5,64.5878099,1
BK0703MALE20,120,0,2,experiment,0,D0,21.2352287,0
BK0703MALE20,120,0,4,experiment,0,D0,13.6546384,0
BK1308MALE21,150,1,2,training,50,D2,,0
BK1308MALE21,150,1,2,training,100,D5,,1
BK1308MALE21,120,0,4,experiment,100,D5,,0
BK1308MALE21,120,0,2,experiment,100,D5,16.6021549,1
BK1308MALE21,120,0,3,experiment,33,D2,,0
BK1308MALE21,120,0,2,experiment,100,D5,12.8824991,1
BK1308MALE21,120,0,2,experiment,75,D4,27.0228906,0
BK1308MALE21,120,0,3,experiment,83,D4,,0
BK1308MALE21,120,0,4,experiment,81,D3,15.5167136,0
BK1308MALE21,120,0,3,experiment,83,D4,12.0601283,0
BK1308MALE21,120,0,2,experiment,0,D0,14.1528937,0
BK1308MALE21,120,0,3,experiment,75,D3,14.2250655,0
BK1308MALE21,120,0,4,experiment,0,D0,12.4761251,0
BK1308MALE21,120,0,4,experiment,25,D2,,0
BK1308MALE21,120,0,3,experiment,16,D1,13.4237301,0
BK1308MALE21,120,0,2,experiment,100,D5,21.6115729,1
BK1308MALE21,120,0,2,experiment,0,D0,11.0340189,0
BK1308MALE21,120,0,4,experiment,87,D4,16.5460575,0
BK1308MALE21,120,0,3,experiment,16,D1,13.7197204,0
BK1308MALE21,120,0,4,experiment,87,D4,15.9196514,0
BK2803MALE20,150,1,2,training,63,D3,,0
BK2803MALE20,150,1,2,training,100,D5,,1
BK2803MALE20,120,0,4,experiment,,NO,,0
BK2803MALE20,120,0,3,experiment,75,D3,77.4651822,0
BK2803MALE20,120,0,4,experiment,87,D4,82.3062105,0
BK2803MALE20,120,0,3,experiment,75,D3,65.6592213,0
BK2803MALE20,120,0,4,experiment,0,D0,,0
BK2803MALE20,120,0,2,experiment,0,D0,86.9600566,0
BK2803MALE20,120,0,4,experiment,87,D4,74.81708,0
BK2803MALE20,120,0,3,experiment,100,D5,32.6214256,1
BK2803MALE20,120,0,2,experiment,75,D4,60.0218615,0
BK2803MALE20,120,0,3,experiment,0,D0,109.485325,0
BK2803MALE20,120,0,2,experiment,75,D4,110.961264,0
BK2803MALE20,120,0,4,experiment,0,D0,28.4022507,0
BK2803MALE20,120,0,3,experiment,100,D5,91.201773,1
BK2803MALE20,120,0,4,experiment,100,D5,29.0879734,1
BK2803MALE20,120,0,2,experiment,75,D4,115.527946,0
BK2803MALE20,120,0,2,experiment,63,D3,43.2003453,0
BK2803MALE20,120,0,2,experiment,63,D3,52.7160597,0
BK2803MALE20,120,0,3,experiment,83,D4,80.5019625,0
BK2908MALE20,150,1,2,training,75,D4,,0
BK2908MALE20,150,1,2,training,75,D4,,0
BK2908MALE20,120,0,2,experiment,100,D5,98.9948142,1
BK2908MALE20,120,0,4,experiment,87,D4,109.88818,0
BK2908MALE20,120,0,2,experiment,100,D5,71.6289786,1
BK2908MALE20,120,0,4,experiment,100,D5,57.7678128,1
BK2908MALE20,120,0,4,experiment,100,D5,95.4938843,1
BK2908MALE20,120,0,2,experiment,100,D5,59.7378089,1
BK2908MALE20,120,0,2,experiment,75,D4,48.0463492,0
BK2908MALE20,120,0,3,experiment,100,D5,82.4192305,1
BK2908MALE20,120,0,4,experiment,81,D3,51.9142905,0
BK2908MALE20,120,0,4,experiment,87,D4,44.3283927,0
BK2908MALE20,120,0,3,experiment,100,D5,37.0286104,1
BK2908MALE20,120,0,3,experiment,100,D5,64.5278338,1
BK2908MALE20,120,0,2,experiment,100,D5,31.6075149,1
BK2908MALE20,120,0,3,experiment,100,D5,61.0253721,1
BK2908MALE20,120,0,2,experiment,100,D5,65.2188769,1
BK2908MALE20,120,0,3,experiment,100,D5,45.9334134,1
BK2908MALE20,120,0,4,experiment,100,D5,71.1313036,1
BK2908MALE20,120,0,3,experiment,100,D5,34.0646711,1
BL1401MALE20,150,1,2,training,0,D0,,0
BL1401MALE20,150,1,2,training,25,D1,,0
BL1401MALE20,120,0,3,experiment,16,D1,37.8682819,0
BL1401MALE20,120,0,4,experiment,87,D4,30.0507288,0
BL1401MALE20,120,0,4,experiment,0,D0,25.7746232,0
BL1401MALE20,120,0,3,experiment,0,D0,37.3926755,0
BL1401MALE20,120,0,2,experiment,25,D1,18.601536,0
BL1401MALE20,120,0,2,experiment,25,D1,44.6837125,0
BL1401MALE20,120,0,2,experiment,25,D1,66.5324385,0
BL1401MALE20,120,0,2,experiment,0,D0,,0
BL1401MALE20,120,0,2,experiment,25,D1,,0
BL1401MALE20,120,0,3,experiment,100,D5,52.7339242,1
BL1401MALE20,120,0,4,experiment,100,D5,44.6989377,1
BL1401MALE20,120,0,3,experiment,100,D5,23.0848579,1
BL1401MALE20,120,0,4,experiment,87,D4,48.7119333,0
BL1401MALE20,120,0,3,experiment,75,D3,31.5694382,0
BL1401MALE20,120,0,2,experiment,63,D3,68.1852297,0
BL1401MALE20,120,0,4,experiment,25,D2,34.5381427,0
BL1401MALE20,120,0,4,experiment,25,D2,45.4270556,0
BL1401MALE20,120,0,3,experiment,75,D3,40.3803442,0
BN0507MALE20,150,1,2,training,75,D4,,0
BN0507MALE20,150,1,2,training,63,D3,,0
BN0507MALE20,120,0,4,experiment,81,D3,91.6606424,0
BN0507MALE20,120,0,4,experiment,100,D5,80.305618,1
BN0507MALE20,120,0,3,experiment,100,D5,63.1582044,1
BN0507MALE20,120,0,2,experiment,100,D5,71.750438,1
BN0507MALE20,120,0,4,experiment,100,D5,80.8610998,1
BN0507MALE20,120,0,3,experiment,83,D4,56.1311539,0
BN0507MALE20,120,0,4,experiment,100,D5,62.9556643,1
BN0507MALE20,120,0,4,experiment,100,D5,88.4590668,1
BN0507MALE20,120,0,4,experiment,100,D5,36.1242339,1
BN0507MALE20,120,0,2,experiment,75,D4,30.5332386,0
BN0507MALE20,120,0,2,experiment,100,D5,15.8831259,1
BN0507MALE20,120,0,3,experiment,100,D5,40.1056497,1
BN0507MALE20,120,0,3,experiment,83,D4,73.2428585,0
BN0507MALE20,120,0,2,experiment,100,D5,54.4454005,1
BN0507MALE20,120,0,3,experiment,100,D5,71.5901804,1
BN0507MALE20,120,0,2,experiment,100,D5,53.7426717,1
BN0507MALE20,120,0,2,experiment,75,D4,38.7100159,0
BN0507MALE20,120,0,3,experiment,100,D5,25.267991,1
BP2709MALE21,150,1,2,training,100,D5,,1
BP2709MALE21,150,1,2,training,100,D5,,1
BP2709MALE21,120,0,2,experiment,100,D5,110.158363,1
BP2709MALE21,120,0,4,experiment,100,D5,49.3373883,1
BP2709MALE21,120,0,2,experiment,100,D5,72.949199,1
BP2709MALE21,120,0,4,experiment,100,D5,51.0256717,1
BP2709MALE21,120,0,2,experiment,100,D5,49.7616509,1
BP2709MALE21,120,0,2,experiment,100,D5,46.6047059,1
BP2709MALE21,120,0,4,experiment,100,D5,53.0501669,1
BP2709MALE21,120,0,3,experiment,100,D5,72.1909348,1
BP2709MALE21,120,0,4,experiment,100,D5,116.028536,1
BP2709MALE21,120,0,3,experiment,100,D5,99.9378126,1
BP2709MALE21,120,0,4,experiment,100,D5,74.1478086,1
BP2709MALE21,120,0,4,experiment,100,D5,80.2136041,1
BP2709MALE21,120,0,2,experiment,100,D5,40.2372565,1
BP2709MALE21,120,0,2,experiment,100,D5,46.9947621,1
BP2709MALE21,120,0,3,experiment,100,D5,52.1265947,1
BP2709MALE21,120,0,3,experiment,100,D5,107.10931,1
BP2709MALE21,120,0,3,experiment,100,D5,98.3253404,1
BP2709MALE21,120,0,3,experiment,100,D5,73.3817831,1
BS3108MALE20,150,1,2,training,,NO,,0
BS3108MALE20,150,1,2,training,63,D3,,0
BS3108MALE20,120,0,3,experiment,83,D4,108.79627,0
BS3108MALE20,120,0,3,experiment,83,D4,54.9587792,0
BS3108MALE20,120,0,4,experiment,,NO,,0
BS3108MALE20,120,0,4,experiment,100,D5,80.141583,1
BS3108MALE20,120,0,2,experiment,100,D5,78.1675351,1
BS3108MALE20,120,0,2,experiment,0,D0,74.5948079,0
BS3108MALE20,120,0,4,experiment,100,D5,108.906885,1
BS3108MALE20,120,0,3,experiment,100,D5,104.168931,1
BS3108MALE20,120,0,4,experiment,81,D3,72.4096463,0
BS3108MALE20,120,0,4,experiment,81,D3,71.6709925,0
BS3108MALE20,120,0,2,experiment,100,D5,32.7649086,1
BS3108MALE20,120,0,4,experiment,100,D5,68.7762187,1
BS3108MALE20,120,0,2,experiment,100,D5,69.3155956,1
BS3108MALE20,120,0,3,experiment,100,D5,60.451366,1
BS3108MALE20,120,0,2,experiment,75,D4,65.2769324,0
BS3108MALE20,120,0,3,experiment,100,D5,54.0804774,1
BS3108MALE20,120,0,3,experiment,100,D5,15.6906125,1
BS3108MALE20,120,0,2,experiment,100,D5,45.4391163,1
BZ2011MALE20,150,1,2,training,0,D0,,0
BZ2011MALE20,150,1,2,training,50,D2,,0
BZ2011MALE20,120,0,4,experiment,87,D4,55.8806753,0
BZ2011MALE20,120,0,3,experiment,16,D1,99.7722571,0
BZ2011MALE20,120,0,2,experiment,100,D5,95.2117912,1
BZ2011MALE20,120,0,3,experiment,,NO,,0
BZ2011MALE20,120,0,2,experiment,50,D2,117.545909,0
BZ2011MALE20,120,0,2,experiment,0,D0,114.341048,0
BZ2011MALE20,120,0,3,experiment,0,D0,106.043646,0
BZ2011MALE20,120,0,3,experiment,100,D5,118.362404,1
BZ2011MALE20,120,0,4,experiment,25,D2,118.358657,0
BZ2011MALE20,120,0,2,experiment,0,D0,118.142697,0
BZ2011MALE20,120,0,4,experiment,0,D0,113.726143,0
BZ2011MALE20,120,0,4,experiment,12,D1,116.770709,0
BZ2011MALE20,120,0,3,experiment,0,D0,117.773111,0
BZ2011MALE20,120,0,2,experiment,0,D0,117.75912,0
BZ2011MALE20,120,0,4,experiment,,NO,,0
BZ2011MALE20,120,0,2,experiment,50,D2,27.781644,0
BZ2011MALE20,120,0,4,experiment,81,D3,10.1037441,0
BZ2011MALE20,120,0,3,experiment,16,D1,,0
CD0201MALE24,150,1,2,training,100,D5,,1
CD0201MALE24,150,1,2,training,75,D4,,0
CD0201MALE24,120,0,3,experiment,100,D5,110.900392,1
CD0201MALE24,120,0,3,experiment,83,D4,108.380845,0
CD0201MALE24,120,0,4,experiment,81,D3,67.3805973,0
CD0201MALE24,120,0,2,experiment,50,D2,111.378636,0
CD0201MALE24,120,0,4,experiment,87,D4,82.6479458,0
CD0201MALE24,120,0,4,experiment,81,D3,50.1403853,0
CD0201MALE24,120,0,4,experiment,100,D5,96.2689879,1
CD0201MALE24,120,0,4,experiment,100,D5,78.4966404,1
CD0201MALE24,120,0,4,experiment,87,D4,88.1469686,0
CD0201MALE24,120,0,3,experiment,16,D1,86.2425583,0
CD0201MALE24,120,0,2,experiment,75,D4,34.5423109,0
CD0201MALE24,120,0,2,experiment,25,D1,56.3332828,0
CD0201MALE24,120,0,3,experiment,16,D1,72.3696075,0
CD0201MALE24,120,0,2,experiment,100,D5,57.4307604,1
CD0201MALE24,120,0,2,experiment,25,D1,67.4629463,0
CD0201MALE24,120,0,2,experiment,50,D2,112.083032,0
CD0201MALE24,120,0,3,experiment,16,D1,44.0593463,0
CD0201MALE24,120,0,3,experiment,83,D4,77.4493864,0
DA2705MALE28,150,1,2,training,,NO,,0
DA2705MALE28,150,1,2,training,75,D4,,0
DA2705MALE28,120,0,3,experiment,100,D5,96.4004827,1
DA2705MALE28,120,0,2,experiment,100,D5,68.7154097,1
DA2705MALE28,120,0,3,experiment,100,D5,70.462024,1
DA2705MALE28,120,0,2,experiment,100,D5,102.030042,1
DA2705MALE28,120,0,3,experiment,100,D5,103.405706,1
DA2705MALE28,120,0,2,experiment,100,D5,108.615802,1
DA2705MALE28,120,0,4,experiment,100,D5,80.5833289,1
DA2705MALE28,120,0,2,experiment,25,D1,110.986847,0
DA2705MALE28,120,0,3,experiment,100,D5,85.8062314,1
DA2705MALE28,120,0,4,experiment,81,D3,114.163953,0
DA2705MALE28,120,0,4,experiment,12,D1,117.917088,0
DA2705MALE28,120,0,4,experiment,100,D5,67.8861189,1
DA2705MALE28,120,0,2,experiment,100,D5,84.5241082,1
DA2705MALE28,120,0,2,experiment,100,D5,54.3955549,1
DA2705MALE28,120,0,3,experiment,100,D5,70.8675857,1
DA2705MALE28,120,0,4,experiment,100,D5,57.8456882,1
DA2705MALE28,120,0,3,experiment,100,D5,47.9700322,1
DA2705MALE28,120,0,4,experiment,12,D1,,0
DB2205MALE20,150,1,2,training,100,D5,,1
DB2205MALE20,150,1,2,training,100,D5,,1
DB2205MALE20,120,0,3,experiment,83,D4,119.862592,0
DB2205MALE20,120,0,2,experiment,25,D1,61.2357792,0
DB2205MALE20,120,0,3,experiment,100,D5,64.2331069,1
DB2205MALE20,120,0,2,experiment,50,D2,108.792717,0
DB2205MALE20,120,0,4,experiment,81,D3,102.853996,0
DB2205MALE20,120,0,3,experiment,75,D3,96.4983855,0
DB2205MALE20,120,0,2,experiment,63,D3,,0
DB2205MALE20,120,0,3,experiment,33,D2,86.0371564,0
DB2205MALE20,120,0,2,experiment,100,D5,54.3147401,1
DB2205MALE20,120,0,4,experiment,87,D4,106.998979,0
DB2205MALE20,120,0,4,experiment,87,D4,69.8590876,0
DB2205MALE20,120,0,2,experiment,50,D2,72.8135213,0
DB2205MALE20,120,0,3,experiment,0,D0,98.1672717,0
DB2205MALE20,120,0,3,experiment,75,D3,72.8839979,0
DB2205MALE20,120,0,4,experiment,25,D2,100.834931,0
DB2205MALE20,120,0,2,experiment,100,D5,59.3921201,1
DB2205MALE20,120,0,4,experiment,87,D4,60.0972336,0
DB2205MALE20,120,0,4,experiment,25,D2,35.9963087,0
DC0109FEMALE20,150,1,2,training,63,D3,,0
DC0109FEMALE20,150,1,2,training,75,D4,,0
DC0109FEMALE20,120,0,4,experiment,81,D3,19.791986,0
DC0109FEMALE20,120,0,4,experiment,0,D0,20.4369794,0
DC0109FEMALE20,120,0,3,experiment,16,D1,15.7088358,0
DC0109FEMALE20,120,0,2,experiment,25,D1,14.785371,0
DC0109FEMALE20,120,0,3,experiment,100,D5,24.9193316,1
DC0109FEMALE20,120,0,3,experiment,83,D4,21.4694856,0
DC0109FEMALE20,120,0,2,experiment,50,D2,26.1970463,0
DC0109FEMALE20,120,0,4,experiment,81,D3,21.835123,0
DC0109FEMALE20,120,0,3,experiment,83,D4,15.4740862,0
DC0109FEMALE20,120,0,4,experiment,25,D2,10.3056997,0
DC0109FEMALE20,120,0,4,experiment,81,D3,20.7049274,0
DC0109FEMALE20,120,0,2,experiment,63,D3,10.5932525,0
DC0109FEMALE20,120,0,2,experiment,25,D1,17.0149264,0
DC0109FEMALE20,120,0,3,experiment,33,D2,,0
DC0109FEMALE20,120,0,3,experiment,33,D2,20.5470573,0
DC0109FEMALE20,120,0,2,experiment,50,D2,10.5289903,0
DC0109FEMALE20,120,0,2,experiment,50,D2,10.5089822,0
DC0109FEMALE20,120,0,4,experiment,87,D4,13.3273617,0
DC2811MALE20,150,1,2,training,0,D0,,0
DC2811MALE20,150,1,2,training,50,D2,,0
DC2811MALE20,120,0,3,experiment,100,D5,70.8507351,1
DC2811MALE20,120,0,4,experiment,100,D5,67.22029,1
DC2811MALE20,120,0,3,experiment,100,D5,50.0630707,1
DC2811MALE20,120,0,3,experiment,16,D1,,0
DC2811MALE20,120,0,4,experiment,87,D4,24.5302168,0
DC2811MALE20,120,0,2,experiment,0,D0,21.7192887,0
DC2811MALE20,120,0,2,experiment,75,D4,,0
DC2811MALE20,120,0,4,experiment,25,D2,,0
DC2811MALE20,120,0,2,experiment,25,D1,,0
DC2811MALE20,120,0,3,experiment,83,D4,34.4857799,0
DC2811MALE20,120,0,3,experiment,83,D4,12.8043438,0
DC2811MALE20,120,0,2,experiment,75,D4,38.8685721,0
DC2811MALE20,120,0,3,experiment,16,D1,,0
DC2811MALE20,120,0,4,experiment,100,D5,,0
DC2811MALE20,120,0,2,experiment,75,D4,24.9830151,0
DC2811MALE20,120,0,2,experiment,75,D4,,0
DC2811MALE20,120,0,4,experiment,87,D4,,0
DC2811MALE20,120,0,4,experiment,12,D1,,0
DG2511MALE,150,1,2,training,0,D0,,0
DG2511MALE,150,1,2,training,100,D5,,1
DG2511MALE,120,0,3,experiment,100,D5,55.0768657,1
DG2511MALE,120,0,2,experiment,63,D3,,0
DG2511MALE,120,0,2,experiment,0,D0,73.8239923,0
DG2511MALE,120,0,4,experiment,100,D5,36.7018273,1
DG2511MALE,120,0,4,experiment,100,D5,61.8559697,1
DG2511MALE,120,0,2,experiment,50,D2,45.5947427,0
DG2511MALE,120,0,4,experiment,100,D5,90.8468003,1
DG2511MALE,120,0,3,experiment,100,D5,79.5268316,1
DG2511MALE,120,0,3,experiment,33,D2,64.7284429,0
DG2511MALE,120,0,4,experiment,100,D5,68.8842029,1
DG2511MALE,120,0,2,experiment,100,D5,68.6458163,1
DG2511MALE,120,0,3,experiment,75,D3,26.0302835,0
DG2511MALE,120,0,2,experiment,0,D0,32.0806303,0
DG2511MALE,120,0,3,experiment,33,D2,71.3524154,0
DG2511MALE,120,0,3,experiment,100,D5,14.1880182,1
DG2511MALE,120,0,2,experiment,100,D5,38.8408406,1
DG2511MALE,120,0,4,experiment,0,D0,72.0256884,0
DG2511MALE,120,0,4,experiment,87,D4,49.7138301,0
DH2007MALE20,150,1,2,training,25,D1,,0
DH2007MALE20,150,1,2,training,50,D2,,0
DH2007MALE20,120,0,3,experiment,16,D1,,0
DH2007MALE20,120,0,2,experiment,25,D1,12.0267765,0
DH2007MALE20,120,0,3,experiment,0,D0,,0
DH2007MALE20,120,0,2,experiment,25,D1,10.5302866,0
DH2007MALE20,120,0,2,experiment,63,D3,14.1494274,0
DH2007MALE20,120,0,4,experiment,87,D4,,0
DH2007MALE20,120,0,4,experiment,12,D1,12.2691206,0
DH2007MALE20,120,0,3,experiment,100,D5,,0
DH2007MALE20,120,0,3,experiment,0,D0,11.032439,0
DH2007MALE20,120,0,2,experiment,50,D2,,0
DH2007MALE20,120,0,2,experiment,50,D2,,0
DH2007MALE20,120,0,4,experiment,0,D0,11.7805499,0
DH2007MALE20,120,0,4,experiment,0,D0,,0
DH2007MALE20,120,0,3,experiment,33,D2,,0
DH2007MALE20,120,0,4,experiment,12,D1,15.1876462,0
DH2007MALE20,120,0,2,experiment,0,D0,11.5139983,0
DH2007MALE20,120,0,4,experiment,25,D2,35.7279491,0
DH2007MALE20,120,0,3,experiment,83,D4,17.0409044,0
DJ2503FEMALE26,150,1,2,training,100,D5,,1
DJ2503FEMALE26,150,1,2,training,0,D0,,0
DJ2503FEMALE26,120,0,4,experiment,100,D5,64.4409001,1
DJ2503FEMALE26,120,0,4,experiment,81,D3,44.7883739,0
DJ2503FEMALE26,120,0,2,experiment,100,D5,76.5862465,1
DJ2503FEMALE26,120,0,3,experiment,16,D1,,0
DJ2503FEMALE26,120,0,4,experiment,100,D5,63.2633698,1
DJ2503FEMALE26,120,0,2,experiment,63,D3,37.7347091,0
DJ2503FEMALE26,120,0,4,experiment,81,D3,48.6075734,0
DJ2503FEMALE26,120,0,4,experiment,100,D5,54.7068451,1
DJ2503FEMALE26,120,0,2,experiment,75,D4,40.3947579,0
DJ2503FEMALE26,120,0,2,experiment,100,D5,47.5944925,1
DJ2503FEMALE26,120,0,3,experiment,75,D3,35.2369633,0
DJ2503FEMALE26,120,0,2,experiment,50,D2,40.2900199,0
DJ2503FEMALE26,120,0,3,experiment,33,D2,54.3976266,0
DJ2503FEMALE26,120,0,3,experiment,83,D4,56.0709062,0
DJ2503FEMALE26,120,0,4,experiment,100,D5,44.7821986,1
DJ2503FEMALE26,120,0,2,experiment,50,D2,14.4112556,0
DJ2503FEMALE26,120,0,3,experiment,75,D3,45.9803561,0
DJ2503FEMALE26,120,0,3,experiment,100,D5,29.8613266,1
DL1312FEMALE22,150,1,2,training,100,D5,,1
DL1312FEMALE22,150,1,2,training,50,D2,,0
DL1312FEMALE22,120,0,2,experiment,75,D4,55.733765,0
DL1312FEMALE22,120,0,2,experiment,25,D1,58.1329995,0
DL1312FEMALE22,120,0,3,experiment,0,D0,22.8112121,0
DL1312FEMALE22,120,0,4,experiment,25,D2,22.2571281,0
DL1312FEMALE22,120,0,2,experiment,63,D3,55.7500586,0
DL1312FEMALE22,120,0,4,experiment,87,D4,15.399823,0
DL1312FEMALE22,120,0,3,experiment,100,D5,23.2399713,1
DL1312FEMALE22,120,0,3,experiment,83,D4,77.657681,0
DL1312FEMALE22,120,0,4,experiment,81,D3,28.960074,0
DL1312FEMALE22,120,0,4,experiment,100,D5,35.1482352,1
DL1312FEMALE22,120,0,2,experiment,75,D4,69.3747555,0
DL1312FEMALE22,120,0,2,experiment,100,D5,44.8555158,1
DL1312FEMALE22,120,0,3,experiment,100,D5,42.2919378,1
DL1312FEMALE22,120,0,3,experiment,75,D3,58.6928686,0
DL1312FEMALE22,120,0,4,experiment,100,D5,50.9851425,1
DL1312FEMALE22,120,0,2,experiment,100,D5,29.3486468,1
DL1312FEMALE22,120,0,3,experiment,75,D3,20.5630824,0
DL1312FEMALE22,120,0,4,experiment,100,D5,25.9370274,1
DS0810MALE20,150,1,2,training,100,D5,,1
DS0810MALE20,150,1,2,training,100,D5,,1
DS0810MALE20,120,0,2,experiment,0,D0,118.827093,0
DS0810MALE20,120,0,4,experiment,100,D5,91.0259317,1
DS0810MALE20,120,0,3,experiment,16,D1,87.2190189,0
DS0810MALE20,120,0,2,experiment,100,D5,109.910808,1
DS0810MALE20,120,0,2,experiment,50,D2,107.809128,0
DS0810MALE20,120,0,4,experiment,100,D5,93.3898306,1
DS0810MALE20,120,0,4,experiment,81,D3,117.606871,0
DS0810MALE20,120,0,3,experiment,16,D1,35.4476293,0
DS0810MALE20,120,0,2,experiment,63,D3,84.1946557,0
DS0810MALE20,120,0,3,experiment,100,D5,38.4675799,1
DS0810MALE20,120,0,2,experiment,100,D5,54.0610582,1
DS0810MALE20,120,0,3,experiment,16,D1,104.32502,0
DS0810MALE20,120,0,3,experiment,16,D1,69.1155817,0
DS0810MALE20,120,0,4,experiment,12,D1,31.3055073,0
DS0810MALE20,120,0,4,experiment,100,D5,27.8201036,1
DS0810MALE20,120,0,4,experiment,100,D5,66.5282447,1
DS0810MALE20,120,0,3,experiment,16,D1,85.3214197,0
DS0810MALE20,120,0,2,experiment,100,D5,60.9105484,1
DT1604MALE20,150,1,2,training,0,D0,,0
DT1604MALE20,150,1,2,training,100,D5,,1
DT1604MALE20,120,0,4,experiment,100,D5,115.006815,1
DT1604MALE20,120,0,2,experiment,75,D4,72.8920479,0
DT1604MALE20,120,0,3,experiment,100,D5,118.310859,1
DT1604MALE20,120,0,4,experiment,87,D4,117.623316,0
DT1604MALE20,120,0,4,experiment,87,D4,82.2873599,0
DT1604MALE20,120,0,2,experiment,100,D5,105.536004,1
DT1604MALE20,120,0,3,experiment,100,D5,82.3660086,1
DT1604MALE20,120,0,3,experiment,75,D3,90.6333851,0
DT1604MALE20,120,0,2,experiment,75,D4,60.0232962,0
DT1604MALE20,120,0,2,experiment,50,D2,118.492154,0
DT1604MALE20,120,0,2,experiment,50,D2,76.3106203,0
DT1604MALE20,120,0,2,experiment,63,D3,104.973722,0
DT1604MALE20,120,0,3,experiment,75,D3,110.800622,0
DT1604MALE20,120,0,3,experiment,100,D5,99.458302,1
DT1604MALE20,120,0,4,experiment,87,D4,114.980909,0
DT1604MALE20,120,0,3,experiment,75,D3,117.536221,0
DT1604MALE20,120,0,4,experiment,25,D2,64.2287571,0
DT1604MALE20,120,0,4,experiment,87,D4,45.9976758,0
DT3001MALE20,150,1,2,training,100,D5,,1
DT3001MALE20,150,1,2,training,75,D4,,0
DT3001MALE20,120,0,2,experiment,75,D4,99.6982645,0
DT3001MALE20,120,0,2,experiment,63,D3,111.861653,0
DT3001MALE20,120,0,3,experiment,33,D2,91.6121784,0
DT3001MALE20,120,0,2,experiment,50,D2,104.863682,0
DT3001MALE20,120,0,3,experiment,100,D5,50.1529168,1
DT3001MALE20,120,0,4,experiment,100,D5,111.226646,1
DT3001MALE20,120,0,3,experiment,100,D5,94.6302627,1
DT3001MALE20,120,0,4,experiment,87,D4,77.7009337,0
DT3001MALE20,120,0,4,experiment,100,D5,26.1437102,1
DT3001MALE20,120,0,4,experiment,100,D5,35.1026578,1
DT3001MALE20,120,0,2,experiment,100,D5,34.4191934,1
DT3001MALE20,120,0,3,experiment,100,D5,68.0398991,1
DT3001MALE20,120,0,4,experiment,87,D4,109.035881,0
DT3001MALE20,120,0,3,experiment,83,D4,106.837503,0
DT3001MALE20,120,0,2,experiment,75,D4,65.8849155,0
DT3001MALE20,120,0,2,experiment,75,D4,93.9849836,0
DT3001MALE20,120,0,4,experiment,100,D5,113.586255,1
DT3001MALE20,120,0,3,experiment,83,D4,34.2358133,0
EA1201FEMALE29,150,1,2,training,50,D2,,0
EA1201FEMALE29,150,1,2,training,50,D2,,0
EA1201FEMALE29,120,0,4,experiment,100,D5,90.9179705,1
EA1201FEMALE29,120,0,3,experiment,75,D3,50.2410523,0
EA1201FEMALE29,120,0,4,experiment,87,D4,39.4956447,0
EA1201FEMALE29,120,0,4,experiment,87,D4,74.807049,0
EA1201FEMALE29,120,0,2,experiment,100,D5,86.4040701,1
EA1201FEMALE29,120,0,4,experiment,100,D5,72.4456757,1
EA1201FEMALE29,120,0,4,experiment,87,D4,63.0024594,0
EA1201FEMALE29,120,0,2,experiment,25,D1,104.850431,0
EA1201FEMALE29,120,0,2,experiment,100,D5,50.5507225,1
EA1201FEMALE29,120,0,3,experiment,100,D5,48.9761508,1
EA1201FEMALE29,120,0,2,experiment,100,D5,52.13699,1
EA1201FEMALE29,120,0,3,experiment,33,D2,103.09219,0
EA1201FEMALE29,120,0,2,experiment,63,D3,30.773309,0
EA1201FEMALE29,120,0,3,experiment,83,D4,75.0837864,0
EA1201FEMALE29,120,0,3,experiment,16,D1,113.130056,0
EA1201FEMALE29,120,0,3,experiment,75,D3,85.7815166,0
EA1201FEMALE29,120,0,2,experiment,100,D5,44.3491866,1
EA1201FEMALE29,120,0,4,experiment,12,D1,109.55769,0
EB2702MALE20,150,1,2,training,75,D4,,0
EB2702MALE20,150,1,2,training,63,D3,,0
EB2702MALE20,120,0,2,experiment,100,D5,91.7172009,1
EB2702MALE20,120,0,3,experiment,83,D4,93.5067302,0
EB2702MALE20,120,0,3,experiment,16,D1,50.1133495,0
EB2702MALE20,120,0,4,experiment,81,D3,94.3416867,0
EB2702MALE20,120,0,3,experiment,75,D3,101.124115,0
EB2702MALE20,120,0,4,experiment,81,D3,100.865808,0
EB2702MALE20,120,0,3,experiment,83,D4,65.84283,0
EB2702MALE20,120,0,4,experiment,87,D4,58.1361247,0
EB2702MALE20,120,0,2,experiment,50,D2,67.3754874,0
EB2702MALE20,120,0,4,experiment,,NO,,0
EB2702MALE20,120,0,2,experiment,100,D5,43.4321003,1
EB2702MALE20,120,0,2,experiment,75,D4,51.9147473,0
EB2702MALE20,120,0,4,experiment,81,D3,59.5213119,0
EB2702MALE20,120,0,4,experiment,81,D3,60.0502998,0
EB2702MALE20,120,0,2,experiment,100,D5,72.9544179,1
EB2702MALE20,120,0,3,experiment,33,D2,22.8633234,0
EB2702MALE20,120,0,3,experiment,75,D3,12.6216741,0
EB2702MALE20,120,0,2,experiment,100,D5,15.1604674,1
EC0109MALE20,150,1,2,training,100,D5,,1
EC0109MALE20,150,1,2,training,50,D2,,0
EC0109MALE20,120,0,3,experiment,100,D5,115.034876,1
EC0109MALE20,120,0,2,experiment,100,D5,97.2435688,1
EC0109MALE20,120,0,2,experiment,100,D5,106.016826,1
EC0109MALE20,120,0,2,experiment,,NO,,0
EC0109MALE20,120,0,2,experiment,100,D5,70.323059,1
EC0109MALE20,120,0,4,experiment,100,D5,105.591527,1
EC0109MALE20,120,0,4,experiment,81,D3,57.7004271,0
EC0109MALE20,120,0,2,experiment,100,D5,80.5828191,1
EC0109MALE20,120,0,3,experiment,33,D2,117.024123,0
EC0109MALE20,120,0,3,experiment,100,D5,90.8138707,1
EC0109MALE20,120,0,3,experiment,100,D5,97.1169991,1
EC0109MALE20,120,0,3,experiment,75,D3,35.9782105,0
EC0109MALE20,120,0,4,experiment,100,D5,76.0545788,1
EC0109MALE20,120,0,2,experiment,100,D5,68.7587711,1
EC0109MALE20,120,0,4,experiment,100,D5,47.0642009,1
EC0109MALE20,120,0,4,experiment,87,D4,113.52534,0
EC0109MALE20,120,0,3,experiment,100,D5,65.2278426,1
EC0109MALE20,120,0,4,experiment,87,D4,14.9339233,0
EG2104MALE,150,1,2,training,75,D4,,0
EG2104MALE,150,1,2,training,100,D5,,1
EG2104MALE,120,0,3,experiment,100,D5,109.857667,1
EG2104MALE,120,0,3,experiment,0,D0,78.2660965,0
EG2104MALE,120,0,4,experiment,100,D5,103.012158,1
EG2104MALE,120,0,2,experiment,50,D2,78.3739663,0
EG2104MALE,120,0,2,experiment,50,D2,99.1349704,0
EG2104MALE,120,0,3,experiment,100,D5,100.227154,1
EG2104MALE,120,0,2,experiment,100,D5,61.5348498,1
EG2104MALE,120,0,4,experiment,100,D5,68.7793764,1
EG2104MALE,120,0,4,experiment,12,D1,,0
EG2104MALE,120,0,4,experiment,81,D3,36.3401314,0
EG2104MALE,120,0,2,experiment,100,D5,49.2674106,1
EG2104MALE,120,0,3,experiment,100,D5,54.4029366,1
EG2104MALE,120,0,4,experiment,87,D4,54.0290507,0
EG2104MALE,120,0,3,experiment,100,D5,41.9850375,1
EG2104MALE,120,0,2,experiment,50,D2,28.768617,0
EG2104MALE,120,0,3,experiment,0,D0,,0
EG2104MALE,120,0,4,experiment,25,D2,,0
EG2104MALE,120,0,2,experiment,75,D4,29.7657105,0
EK0103MALE20,150,1,2,training,50,D2,,0
EK0103MALE20,150,1,2,training,0,D0,,0
EK0103MALE20,120,0,2,experiment,100,D5,57.809181,1
EK0103MALE20,120,0,3,experiment,100,D5,95.5772135,1
EK0103MALE20,120,0,4,experiment,81,D3,82.7716126,0
EK0103MALE20,120,0,2,experiment,75,D4,65.042122,0
EK0103MALE20,120,0,3,experiment,100,D5,55.0634618,1
EK0103MALE20,120,0,4,experiment,87,D4,80.0846627,0
EK0103MALE20,120,0,3,experiment,100,D5,51.652965,1
EK0103MALE20,120,0,4,experiment,87,D4,94.3212365,0
EK0103MALE20,120,0,3,experiment,100,D5,91.8309597,1
EK0103MALE20,120,0,4,experiment,100,D5,77.8137586,1
EK0103MALE20,120,0,2,experiment,,NO,,0
EK0103MALE20,120,0,2,experiment,100,D5,82.623368,1
EK0103MALE20,120,0,2,experiment,100,D5,54.5629978,1
EK0103MALE20,120,0,4,experiment,87,D4,93.7514378,0
EK0103MALE20,120,0,4,experiment,25,D2,99.1763271,0
EK0103MALE20,120,0,2,experiment,100,D5,47.5506768,1
EK0103MALE20,120,0,3,experiment,100,D5,21.9954224,1
EK0103MALE20,120,0,3,experiment,100,D5,49.3520983,1
EK2002MALE20,150,1,2,training,63,D3,,0
EK2002MALE20,150,1,2,training,100,D5,,1
EK2002MALE20,120,0,3,experiment,0,D0,108.576771,0
EK2002MALE20,120,0,4,experiment,81,D3,105.532565,0
EK2002MALE20,120,0,3,experiment,75,D3,108.171382,0
EK2002MALE20,120,0,2,experiment,100,D5,114.190779,1
EK2002MALE20,120,0,2,experiment,63,D3,99.8836546,0
EK2002MALE20,120,0,2,experiment,0,D0,87.6531436,0
EK2002MALE20,120,0,4,experiment,12,D1,115.649879,0
EK2002MALE20,120,0,2,experiment,0,D0,111.446944,0
EK2002MALE20,120,0,3,experiment,83,D4,105.665293,0
EK2002MALE20,120,0,3,experiment,100,D5,100.955032,1
EK2002MALE20,120,0,2,experiment,75,D4,110.806637,0
EK2002MALE20,120,0,4,experiment,87,D4,73.6046354,0
EK2002MALE20,120,0,3,experiment,0,D0,83.4099863,0
EK2002MALE20,120,0,4,experiment,87,D4,24.9678997,0
EK2002MALE20,120,0,3,experiment,0,D0,29.6057059,0
EK2002MALE20,120,0,4,experiment,100,D5,10.0214746,1
EK2002MALE20,120,0,2,experiment,63,D3,,0
EK2002MALE20,120,0,4,experiment,100,D5,15.9327027,1
EL1709MALE20,150,1,2,training,75,D4,,0
EL1709MALE20,150,1,2,training,63,D3,,0
EL1709MALE20,120,0,3,experiment,0,D0,25.3904737,0
EL1709MALE20,120,0,3,experiment,83,D4,52.1121317,0
EL1709MALE20,120,0,3,experiment,0,D0,34.9190121,0
EL1709MALE20,120,0,3,experiment,100,D5,39.6562202,1
EL1709MALE20,120,0,2,experiment,75,D4,37.6157304,0
EL1709MALE20,120,0,4,experiment,12,D1,,0
EL1709MALE20,120,0,2,experiment,0,D0,,0
EL1709MALE20,120,0,4,experiment,87,D4,30.6167128,0
EL1709MALE20,120,0,4,experiment,81,D3,89.6562189,0
EL1709MALE20,120,0,2,experiment,100,D5,34.4858732,1
EL1709MALE20,120,0,3,experiment,75,D3,,0
EL1709MALE20,120,0,4,experiment,81,D3,30.1664857,0
EL1709MALE20,120,0,2,experiment,0,D0,,0
EL1709MALE20,120,0,2,experiment,50,D2,28.5348314,0
EL1709MALE20,120,0,3,experiment,0,D0,20.3839562,0
EL1709MALE20,120,0,4,experiment,0,D0,41.6761859,0
EL1709MALE20,120,0,4,experiment,25,D2,49.7026151,0
EL1709MALE20,120,0,2,experiment,100,D5,38.2387999,1
EM0207FEMALE22,150,1,2,training,50,D2,,0
EM0207FEMALE22,150,1,2,training,100,D5,,1
EM0207FEMALE22,120,0,2,experiment,63,D3,100.771724,0
EM0207FEMALE22,120,0,2,experiment,100,D5,75.5634875,1
EM0207FEMALE22,120,0,4,experiment,81,D3,63.1642899,0
EM0207FEMALE22,120,0,3,experiment,100,D5,69.8210916,1
EM0207FEMALE22,120,0,3,experiment,100,D5,93.3664473,1
EM0207FEMALE22,120,0,2,experiment,100,D5,52.4404819,1
EM0207FEMALE22,120,0,2,experiment,100,D5,49.1978674,1
EM0207FEMALE22,120,0,3,experiment,100,D5,,0
EM0207FEMALE22,120,0,3,experiment,100,D5,,0
EM0207FEMALE22,120,0,3,experiment,100,D5,112.495502,1
EM0207FEMALE22,120,0,2,experiment,100,D5,62.1854244,1
EM0207FEMALE22,120,0,4,experiment,87,D4,69.1578596,0
EM0207FEMALE22,120,0,2,experiment,100,D5,68.4061585,1
EM0207FEMALE22,120,0,4,experiment,100,D5,100.9403,1
EM0207FEMALE22,120,0,3,experiment,100,D5,20.5242918,1
EM0207FEMALE22,120,0,4,experiment,100,D5,63.2020754,1
EM0207FEMALE22,120,0,4,experiment,100,D5,21.0094773,1
EM0207FEMALE22,120,0,4,experiment,100,D5,18.1416828,1
ER0105MALE20,150,1,2,training,0,D0,,0
ER0105MALE20,150,1,2,training,100,D5,,1
ER0105MALE20,120,0,2,experiment,100,D5,68.6997009,1
ER0105MALE20,120,0,3,experiment,100,D5,96.6593207,1
ER0105MALE20,120,0,2,experiment,100,D5,87.2508062,1
ER0105MALE20,120,0,4,experiment,100,D5,109.005007,1
ER0105MALE20,120,0,4,experiment,81,D3,92.2808004,0
ER0105MALE20,120,0,3,experiment,100,D5,68.222151,1
ER0105MALE20,120,0,4,experiment,100,D5,102.288319,1
ER0105MALE20,120,0,3,experiment,100,D5,64.5095924,1
ER0105MALE20,120,0,3,experiment,100,D5,74.77271,1
ER0105MALE20,120,0,4,experiment,100,D5,49.3628727,1
ER0105MALE20,120,0,2,experiment,50,D2,107.234249,0
ER0105MALE20,120,0,4,experiment,100,D5,90.4206879,1
ER0105MALE20,120,0,3,experiment,100,D5,93.4963369,1
ER0105MALE20,120,0,2,experiment,75,D4,74.1139411,0
ER0105MALE20,120,0,3,experiment,100,D5,110.809159,1
ER0105MALE20,120,0,2,experiment,100,D5,86.6449592,1
ER0105MALE20,120,0,4,experiment,87,D4,115.038301,0
ER0105MALE20,120,0,2,experiment,100,D5,64.5891462,1
ER0608MALE20,150,1,2,training,75,D4,,0
ER0608MALE20,150,1,2,training,100,D5,,1
ER0608MALE20,120,0,2,experiment,25,D1,94.3811064,0
ER0608MALE20,120,0,4,experiment,100,D5,118.748909,1
ER0608MALE20,120,0,4,experiment,25,D2,108.772472,0
ER0608MALE20,120,0,4,experiment,100,D5,106.485619,1
ER0608MALE20,120,0,3,experiment,83,D4,82.0239172,0
ER0608MALE20,120,0,3,experiment,0,D0,93.1119415,0
ER0608MALE20,120,0,2,experiment,50,D2,101.267404,0
ER0608MALE20,120,0,4,experiment,25,D2,118.097844,0
ER0608MALE20,120,0,3,experiment,33,D2,115.395992,0
ER0608MALE20,120,0,3,experiment,100,D5,65.8463323,1
ER0608MALE20,120,0,3,experiment,16,D1,98.2933692,0
ER0608MALE20,120,0,4,experiment,81,D3,55.837512,0
ER0608MALE20,120,0,2,experiment,25,D1,81.5816141,0
ER0608MALE20,120,0,4,experiment,81,D3,107.763823,0
ER0608MALE20,120,0,2,experiment,100,D5,36.6306265,1
ER0608MALE20,120,0,2,experiment,100,D5,41.2034808,1
ER0608MALE20,120,0,3,experiment,75,D3,64.1462824,0
ER0608MALE20,120,0,2,experiment,100,D5,73.612484,1
ER1711FEMALE23,150,1,2,training,100,D5,,1
ER1711FEMALE23,150,1,2,training,50,D2,,0
ER1711FEMALE23,120,0,3,experiment,75,D3,59.0870879,0
ER1711FEMALE23,120,0,2,experiment,75,D4,43.4173554,0
ER1711FEMALE23,120,0,2,experiment,50,D2,49.6901345,0
ER1711FEMALE23,120,0,4,experiment,25,D2,59.0436877,0
ER1711FEMALE23,120,0,3,experiment,33,D2,20.2696036,0
ER1711FEMALE23,120,0,2,experiment,0,D0,33.266612,0
ER1711FEMALE23,120,0,3,experiment,0,D0,19.1573083,0
ER1711FEMALE23,120,0,2,experiment,75,D4,67.4002391,0
ER1711FEMALE23,120,0,3,experiment,83,D4,44.2461269,0
ER1711FEMALE23,120,0,3,experiment,0,D0,33.0215682,0
ER1711FEMALE23,120,0,4,experiment,100,D5,28.0658719,1
ER1711FEMALE23,120,0,4,experiment,87,D4,14.0113397,0
ER1711FEMALE23,120,0,4,experiment,12,D1,35.7939992,0
ER1711FEMALE23,120,0,4,experiment,25,D2,24.2484475,0
ER1711FEMALE23,120,0,4,experiment,0,D0,11.9469084,0
ER1711FEMALE23,120,0,2,experiment,0,D0,22.5263638,0
ER1711FEMALE23,120,0,2,experiment,25,D1,25.3108427,0
ER1711FEMALE23,120,0,3,experiment,100,D5,,0
ES1103FEMALE20,150,1,2,training,25,D1,,0
ES1103FEMALE20,150,1,2,training,25,D1,,0
ES1103FEMALE20,120,0,4,experiment,100,D5,28.6064608,1
ES1103FEMALE20,120,0,3,experiment,75,D3,48.251017,0
ES1103FEMALE20,120,0,3,experiment,100,D5,26.1763529,1
ES1103FEMALE20,120,0,4,experiment,25,D2,52.3105273,0
ES1103FEMALE20,120,0,3,experiment,100,D5,53.3855398,1
ES1103FEMALE20,120,0,2,experiment,0,D0,28.7346513,0
ES1103FEMALE20,120,0,4,experiment,100,D5,33.391607,1
ES1103FEMALE20,120,0,2,experiment,50,D2,63.9770378,0
ES1103FEMALE20,120,0,2,experiment,63,D3,68.4974608,0
ES1103FEMALE20,120,0,4,experiment,12,D1,11.0466448,0
ES1103FEMALE20,120,0,4,experiment,87,D4,37.7410378,0
ES1103FEMALE20,120,0,3,experiment,0,D0,40.9274899,0
ES1103FEMALE20,120,0,2,experiment,0,D0,12.2738035,0
ES1103FEMALE20,120,0,4,experiment,87,D4,29.4970183,0
ES1103FEMALE20,120,0,3,experiment,33,D2,,0
ES1103FEMALE20,120,0,2,experiment,63,D3,24.9836517,0
ES1103FEMALE20,120,0,3,experiment,16,D1,58.8710289,0
ES1103FEMALE20,120,0,2,experiment,0,D0,29.7645852,0
ES2001MALE20,150,1,2,training,100,D5,,1
ES2001MALE20,150,1,2,training,63,D3,,0
ES2001MALE20,120,0,2,experiment,100,D5,98.6768389,1
ES2001MALE20,120,0,3,experiment,100,D5,77.6371085,1
ES2001MALE20,120,0,3,experiment,100,D5,75.6255566,1
ES2001MALE20,120,0,4,experiment,87,D4,83.6263287,0
ES2001MALE20,120,0,4,experiment,81,D3,78.7132838,0
ES2001MALE20,120,0,4,experiment,87,D4,119.7597,0
ES2001MALE20,120,0,4,experiment,100,D5,111.1144,1
ES2001MALE20,120,0,4,experiment,87,D4,,0
ES2001MALE20,120,0,4,experiment,100,D5,75.5049584,1
ES2001MALE20,120,0,2,experiment,100,D5,50.9729912,1
ES2001MALE20,120,0,3,experiment,33,D2,62.6199032,0
ES2001MALE20,120,0,2,experiment,100,D5,72.7184364,1
ES2001MALE20,120,0,2,experiment,63,D3,75.239489,0
ES2001MALE20,120,0,2,experiment,75,D4,73.3013515,0
ES2001MALE20,120,0,3,experiment,83,D4,64.5525672,0
ES2001MALE20,120,0,2,experiment,100,D5,44.4765496,1
ES2001MALE20,120,0,3,experiment,100,D5,46.8024218,1
ES2001MALE20,120,0,3,experiment,16,D1,55.3734182,0
FF0307MALE20,150,1,2,training,25,D1,,0
FF0307MALE20,150,1,2,training,63,D3,,0
FF0307MALE20,120,0,4,experiment,12,D1,88.7081944,0
FF0307MALE20,120,0,3,experiment,100,D5,43.0436784,1
FF0307MALE20,120,0,2,experiment,0,D0,,0
FF0307MALE20,120,0,2,experiment,0,D0,,0
FF0307MALE20,120,0,4,experiment,87,D4,,0
FF0307MALE20,120,0,3,experiment,0,D0,,0
FF0307MALE20,120,0,2,experiment,63,D3,32.2582928,0
FF0307MALE20,120,0,3,experiment,83,D4,17.5949146,0
FF0307MALE20,120,0,3,experiment,100,D5,98.9494828,1
FF0307MALE20,120,0,2,experiment,63,D3,80.5203421,0
FF0307MALE20,120,0,3,experiment,83,D4,57.428328,0
FF0307MALE20,120,0,4,experiment,87,D4,36.4654456,0
FF0307MALE20,120,0,4,experiment,100,D5,22.5270344,1
FF0307MALE20,120,0,4,experiment,0,D0,39.3059284,0
FF0307MALE20,120,0,2,experiment,75,D4,,0
FF0307MALE20,120,0,2,experiment,100,D5,,0
FF0307MALE20,120,0,4,experiment,81,D3,42.5295735,0
FF0307MALE20,120,0,3,experiment,75,D3,18.5146822,0
FF3005MALE20,150,1,2,training,100,D5,,1
FF3005MALE20,150,1,2,training,75,D4,,0
FF3005MALE20,120,0,2,experiment,75,D4,52.8780014,0
FF3005MALE20,120,0,4,experiment,81,D3,102.800882,0
FF3005MALE20,120,0,2,experiment,50,D2,55.8015606,0
FF3005MALE20,120,0,3,experiment,100,D5,28.7397023,1
FF3005MALE20,120,0,3,experiment,83,D4,47.0698546,0
FF3005MALE20,120,0,2,experiment,25,D1,50.7832423,0
FF3005MALE20,120,0,2,experiment,75,D4,,0
FF3005MALE20,120,0,3,experiment,75,D3,32.7843783,0
FF3005MALE20,120,0,4,experiment,100,D5,73.8983527,1
FF3005MALE20,120,0,3,experiment,83,D4,55.355119,0
FF3005MALE20,120,0,4,experiment,100,D5,75.5765341,1
FF3005MALE20,120,0,4,experiment,100,D5,22.1817871,1
FF3005MALE20,120,0,3,experiment,83,D4,38.9047506,0
FF3005MALE20,120,0,2,experiment,25,D1,78.2309193,0
FF3005MALE20,120,0,2,experiment,100,D5,40.5754465,1
FF3005MALE20,120,0,4,experiment,100,D5,65.5881059,1
FF3005MALE20,120,0,3,experiment,0,D0,18.8183752,0
FF3005MALE20,120,0,4,experiment,87,D4,56.9408834,0
FJ0301MALE20,150,1,2,training,25,D1,,0
FJ0301MALE20,150,1,2,training,25,D1,,0
FJ0301MALE20,120,0,3,experiment,83,D4,108.781897,0
FJ0301MALE20,120,0,4,experiment,87,D4,89.9132046,0
FJ0301MALE20,120,0,4,experiment,25,D2,64.027656,0
FJ0301MALE20,120,0,4,experiment,87,D4,83.1211678,0
FJ0301MALE20,120,0,3,experiment,100,D5,45.8234485,1
FJ0301MALE20,120,0,3,experiment,75,D3,84.9191145,0
FJ0301MALE20,120,0,2,experiment,63,D3,79.9471474,0
FJ0301MALE20,120,0,2,experiment,75,D4,44.3183986,0
FJ0301MALE20,120,0,2,experiment,100,D5,29.922253,1
FJ0301MALE20,120,0,4,experiment,100,D5,48.8460908,1
FJ0301MALE20,120,0,2,experiment,63,D3,62.8997591,0
FJ0301MALE20,120,0,2,experiment,0,D0,,0
FJ0301MALE20,120,0,3,experiment,100,D5,32.7169578,1
FJ0301MALE20,120,0,2,experiment,63,D3,45.7838736,0
FJ0301MALE20,120,0,4,experiment,100,D5,62.4460469,1
FJ0301MALE20,120,0,3,experiment,16,D1,19.4286866,0
FJ0301MALE20,120,0,3,experiment,33,D2,45.7432384,0
FJ0301MALE20,120,0,4,experiment,87,D4,36.6255478,0
GB0201MALE20,150,1,2,training,50,D2,,0
GB0201MALE20,150,1,2,training,100,D5,,1
GB0201MALE20,120,0,3,experiment,100,D5,25.9150698,1
GB0201MALE20,120,0,3,experiment,33,D2,112.481945,0
GB0201MALE20,120,0,4,experiment,0,D0,88.7217689,0
GB0201MALE20,120,0,2,experiment,25,D1,102.119999,0
GB0201MALE20,120,0,3,experiment,100,D5,98.6926974,1
GB0201MALE20,120,0,4,experiment,100,D5,102.528045,1
GB0201MALE20,120,0,3,experiment,33,D2,72.352412,0
GB0201MALE20,120,0,4,experiment,87,D4,34.7934781,0
GB0201MALE20,120,0,2,experiment,100,D5,62.3634615,1
GB0201MALE20,120,0,2,experiment,100,D5,55.8156426,1
GB0201MALE20,120,0,2,experiment,100,D5,86.0386774,1
GB0201MALE20,120,0,4,experiment,100,D5,113.875237,1
GB0201MALE20,120,0,3,experiment,75,D3,74.9983779,0
GB0201MALE20,120,0,3,experiment,75,D3,68.2876801,0
GB0201MALE20,120,0,4,experiment,,NO,,0
GB0201MALE20,120,0,2,experiment,25,D1,70.9277959,0
GB0201MALE20,120,0,2,experiment,100,D5,54.1068027,1
GB0201MALE20,120,0,4,experiment,81,D3,66.1548156,0
GP0212MALE20,150,1,2,training,100,D5,,1
GP0212MALE20,150,1,2,training,63,D3,,0
GP0212MALE20,120,0,3,experiment,100,D5,115.146087,1
GP0212MALE20,120,0,2,experiment,100,D5,113.194905,1
GP0212MALE20,120,0,4,experiment,100,D5,87.5657969,1
GP0212MALE20,120,0,3,experiment,100,D5,100.423537,1
GP0212MALE20,120,0,3,experiment,100,D5,84.8012543,1
GP0212MALE20,120,0,4,experiment,100,D5,88.7607907,1
GP0212MALE20,120,0,3,experiment,100,D5,87.5376785,1
GP0212MALE20,120,0,2,experiment,100,D5,56.9250519,1
GP0212MALE20,120,0,4,experiment,100,D5,107.640705,1
GP0212MALE20,120,0,4,experiment,100,D5,96.1388126,1
GP0212MALE20,120,0,3,experiment,100,D5,,0
GP0212MALE20,120,0,3,experiment,100,D5,98.1237629,1
GP0212MALE20,120,0,2,experiment,100,D5,41.6327215,1
GP0212MALE20,120,0,2,experiment,100,D5,104.340792,1
GP0212MALE20,120,0,2,experiment,100,D5,95.5304887,1
GP0212MALE20,120,0,4,experiment,100,D5,60.7599173,1
GP0212MALE20,120,0,2,experiment,100,D5,57.678549,1
GP0212MALE20,120,0,4,experiment,81,D3,52.8693177,0
GS0504FEMALE21,150,1,2,training,63,D3,,0
GS0504FEMALE21,150,1,2,training,25,D1,,0
GS0504FEMALE21,120,0,4,experiment,81,D3,86.6041045,0
GS0504FEMALE21,120,0,2,experiment,75,D4,105.632741,0
GS0504FEMALE21,120,0,4,experiment,100,D5,55.6114357,1
GS0504FEMALE21,120,0,2,experiment,100,D5,60.7045566,1
GS0504FEMALE21,120,0,4,experiment,81,D3,51.9294494,0
GS0504FEMALE21,120,0,4,experiment,81,D3,55.2921725,0
GS0504FEMALE21,120,0,2,experiment,100,D5,86.7916475,1
GS0504FEMALE21,120,0,3,experiment,83,D4,62.8473651,0
GS0504FEMALE21,120,0,3,experiment,100,D5,93.0675864,1
GS0504FEMALE21,120,0,2,experiment,100,D5,49.5155633,1
GS0504FEMALE21,120,0,3,experiment,75,D3,98.9962286,0
GS0504FEMALE21,120,0,4,experiment,81,D3,110.961618,0
GS0504FEMALE21,120,0,2,experiment,50,D2,93.3549428,0
GS0504FEMALE21,120,0,3,experiment,33,D2,88.9216871,0
GS0504FEMALE21,120,0,2,experiment,,NO,,0
GS0504FEMALE21,120,0,3,experiment,75,D3,,0
GS0504FEMALE21,120,0,3,experiment,16,D1,,0
GS0504FEMALE21,120,0,4,experiment,12,D1,,0
GS2112MALE22,150,1,2,training,50,D2,,0
GS2112MALE22,150,1,2,training,63,D3,,0
GS2112MALE22,120,0,2,experiment,100,D5,85.9916344,1
GS2112MALE22,120,0,4,experiment,87,D4,55.9533139,0
GS2112MALE22,120,0,3,experiment,83,D4,66.0265596,0
GS2112MALE22,120,0,2,experiment,75,D4,62.5937589,0
GS2112MALE22,120,0,3,experiment,75,D3,85.1558568,0
GS2112MALE22,120,0,4,experiment,87,D4,72.0514208,0
GS2112MALE22,120,0,3,experiment,83,D4,58.0089165,0
GS2112MALE22,120,0,4,experiment,100,D5,63.3831839,1
GS2112MALE22,120,0,4,experiment,87,D4,81.5008455,0
GS2112MALE22,120,0,3,experiment,100,D5,63.6236979,1
GS2112MALE22,120,0,2,experiment,100,D5,46.5055799,1
GS2112MALE22,120,0,3,experiment,75,D3,93.950913,0
GS2112MALE22,120,0,2,experiment,100,D5,42.0681092,1
GS2112MALE22,120,0,3,experiment,100,D5,72.3418663,1
GS2112MALE22,120,0,2,experiment,100,D5,71.5340529,1
GS2112MALE22,120,0,4,experiment,100,D5,67.0763661,1
GS2112MALE22,120,0,4,experiment,81,D3,93.1454851,0
GS2112MALE22,120,0,2,experiment,25,D1,85.6560639,0
GT2407FEMALE21,150,1,2,training,50,D2,,0
GT2407FEMALE21,150,1,2,training,25,D1,,0
GT2407FEMALE21,120,0,4,experiment,100,D5,36.9708412,1
GT2407FEMALE21,120,0,2,experiment,63,D3,53.4630286,0
GT2407FEMALE21,120,0,4,experiment,100,D5,22.4903408,1
GT2407FEMALE21,120,0,2,experiment,0,D0,78.0049709,0
GT2407FEMALE21,120,0,2,experiment,75,D4,76.9545474,0
GT2407FEMALE21,120,0,3,experiment,83,D4,93.4313947,0
GT2407FEMALE21,120,0,2,experiment,75,D4,39.0082467,0
GT2407FEMALE21,120,0,3,experiment,83,D4,30.6571047,0
GT2407FEMALE21,120,0,3,experiment,100,D5,23.6311459,1
GT2407FEMALE21,120,0,3,experiment,83,D4,88.4079823,0
GT2407FEMALE21,120,0,3,experiment,16,D1,62.9232335,0
GT2407FEMALE21,120,0,4,experiment,0,D0,,0
GT2407FEMALE21,120,0,2,experiment,100,D5,58.559172,1
GT2407FEMALE21,120,0,4,experiment,87,D4,54.9169929,0
GT2407FEMALE21,120,0,4,experiment,100,D5,49.6047952,1
GT2407FEMALE21,120,0,4,experiment,100,D5,34.2052539,1
GT2407FEMALE21,120,0,3,experiment,33,D2,20.5759121,0
GT2407FEMALE21,120,0,2,experiment,0,D0,,0
GW0403FEMALE36,150,1,2,training,63,D3,,0
GW0403FEMALE36,150,1,2,training,100,D5,,1
GW0403FEMALE36,120,0,2,experiment,100,D5,59.3977978,1
GW0403FEMALE36,120,0,4,experiment,100,D5,52.5436496,1
GW0403FEMALE36,120,0,4,experiment,87,D4,49.1851049,0
GW0403FEMALE36,120,0,4,experiment,12,D1,,0
GW0403FEMALE36,120,0,4,experiment,87,D4,,0
GW0403FEMALE36,120,0,2,experiment,63,D3,10.7807692,0
GW0403FEMALE36,120,0,3,experiment,100,D5,42.4951435,1
GW0403FEMALE36,120,0,3,experiment,100,D5,37.3151391,1
GW0403FEMALE36,120,0,3,experiment,75,D3,,0
GW0403FEMALE36,120,0,2,experiment,100,D5,85.5927824,1
GW0403FEMALE36,120,0,3,experiment,16,D1,91.811318,0
GW0403FEMALE36,120,0,4,experiment,100,D5,26.1269259,1
GW0403FEMALE36,120,0,2,experiment,75,D4,76.02892,0
GW0403FEMALE36,120,0,4,experiment,87,D4,29.8353848,0
GW0403FEMALE36,120,0,3,experiment,100,D5,58.8671728,1
GW0403FEMALE36,120,0,2,experiment,63,D3,35.5023349,0
GW0403FEMALE36,120,0,3,experiment,33,D2,40.7201625,0
GW0403FEMALE36,120,0,2,experiment,25,D1,101.430747,0
IB0407MALE20,150,1,2,training,25,D1,,0
IB0407MALE20,150,1,2,training,100,D5,,1
IB0407MALE20,120,0,3,experiment,100,D5,94.7937048,1
IB0407MALE20,120,0,4,experiment,25,D2,64.1865928,0
IB0407MALE20,120,0,2,experiment,63,D3,80.5892242,0
IB0407MALE20,120,0,2,experiment,100,D5,68.6662891,1
IB0407MALE20,120,0,3,experiment,100,D5,33.6468374,1
IB0407MALE20,120,0,3,experiment,75,D3,33.1446147,0
IB0407MALE20,120,0,4,experiment,81,D3,26.3811764,0
IB0407MALE20,120,0,3,experiment,83,D4,75.6536973,0
IB0407MALE20,120,0,2,experiment,63,D3,28.473035,0
IB0407MALE20,120,0,3,experiment,100,D5,48.9672904,1
IB0407MALE20,120,0,2,experiment,100,D5,20.3756783,1
IB0407MALE20,120,0,4,experiment,100,D5,31.1229191,1
IB0407MALE20,120,0,4,experiment,25,D2,77.6859382,0
IB0407MALE20,120,0,3,experiment,75,D3,37.7026872,0
IB0407MALE20,120,0,2,experiment,75,D4,33.6285409,0
IB0407MALE20,120,0,2,experiment,100,D5,26.3630566,1
IB0407MALE20,120,0,4,experiment,100,D5,17.209514,1
IB0407MALE20,120,0,4,experiment,0,D0,39.4426062,0
IJ2309MALE20,150,1,2,training,63,D3,,0
IJ2309MALE20,150,1,2,training,100,D5,,0
IJ2309MALE20,120,0,2,experiment,63,D3,59.1175297,0
IJ2309MALE20,120,0,4,experiment,12,D1,32.6794836,0
IJ2309MALE20,120,0,3,experiment,100,D5,59.1737386,1
IJ2309MALE20,120,0,4,experiment,12,D1,35.1738504,0
IJ2309MALE20,120,0,3,experiment,33,D2,59.495243,0
IJ2309MALE20,120,0,3,experiment,83,D4,70.2053248,0
IJ2309MALE20,120,0,2,experiment,100,D5,51.3652037,1
IJ2309MALE20,120,0,2,experiment,50,D2,61.8833347,0
IJ2309MALE20,120,0,3,experiment,75,D3,26.2946966,0
IJ2309MALE20,120,0,4,experiment,87,D4,51.5635211,0
IJ2309MALE20,120,0,2,experiment,100,D5,,0
IJ2309MALE20,120,0,4,experiment,87,D4,32.0865943,0
IJ2309MALE20,120,0,3,experiment,75,D3,33.8729757,0
IJ2309MALE20,120,0,3,experiment,16,D1,,0
IJ2309MALE20,120,0,2,experiment,100,D5,24.7394918,1
IJ2309MALE20,120,0,4,experiment,100,D5,22.8724786,1
IJ2309MALE20,120,0,4,experiment,12,D1,,0
IJ2309MALE20,120,0,2,experiment,100,D5,17.2652444,1
IK1201FEMALE24,150,1,2,training,75,D4,,0
IK1201FEMALE24,150,1,2,training,0,D0,,0
IK1201FEMALE24,120,0,2,experiment,100,D5,46.4438309,1
IK1201FEMALE24,120,0,3,experiment,83,D4,48.1248653,0
IK1201FEMALE24,120,0,2,experiment,100,D5,22.6733987,1
IK1201FEMALE24,120,0,2,experiment,63,D3,28.1733179,0
IK1201FEMALE24,120,0,3,experiment,0,D0,30.1132867,0
IK1201FEMALE24,120,0,4,experiment,25,D2,41.1311276,0
IK1201FEMALE24,120,0,4,experiment,100,D5,33.8524289,1
IK1201FEMALE24,120,0,2,experiment,75,D4,23.075869,0
IK1201FEMALE24,120,0,4,experiment,12,D1,27.7224995,0
IK1201FEMALE24,120,0,3,experiment,16,D1,,0
IK1201FEMALE24,120,0,4,experiment,25,D2,55.6812804,0
IK1201FEMALE24,120,0,2,experiment,63,D3,17.4169131,0
IK1201FEMALE24,120,0,3,experiment,0,D0,21.7882022,0
IK1201FEMALE24,120,0,4,experiment,25,D2,20.8066205,0
IK1201FEMALE24,120,0,3,experiment,75,D3,42.8547585,0
IK1201FEMALE24,120,0,2,experiment,75,D4,40.4361391,0
IK1201FEMALE24,120,0,3,experiment,75,D3,35.7872453,0
IK1201FEMALE24,120,0,4,experiment,100,D5,33.3156412,1
IR1108FEMALE20,150,1,2,training,0,D0,,0
IR1108FEMALE20,150,1,2,training,100,D5,,1
IR1108FEMALE20,120,0,2,experiment,63,D3,77.1212519,0
IR1108FEMALE20,120,0,4,experiment,100,D5,107.328609,1
IR1108FEMALE20,120,0,3,experiment,83,D4,73.0837138,0
IR1108FEMALE20,120,0,2,experiment,0,D0,60.0561791,0
IR1108FEMALE20,120,0,3,experiment,0,D0,66.3175173,0
IR1108FEMALE20,120,0,4,experiment,25,D2,68.6539591,0
IR1108FEMALE20,120,0,2,experiment,0,D0,,0
IR1108FEMALE20,120,0,4,experiment,25,D2,112.164568,0
IR1108FEMALE20,120,0,2,experiment,100,D5,110.559428,1
IR1108FEMALE20,120,0,3,experiment,100,D5,87.5271669,1
IR1108FEMALE20,120,0,3,experiment,100,D5,116.212248,1
IR1108FEMALE20,120,0,4,experiment,81,D3,60.354615,0
IR1108FEMALE20,120,0,3,experiment,100,D5,10.2780199,1
IR1108FEMALE20,120,0,2,experiment,100,D5,87.1424204,1
IR1108FEMALE20,120,0,4,experiment,87,D4,116.960617,0
IR1108FEMALE20,120,0,4,experiment,12,D1,78.9008897,0
IR1108FEMALE20,120,0,2,experiment,75,D4,31.4348669,0
IR1108FEMALE20,120,0,3,experiment,16,D1,,0
IW1506MALE20,150,1,2,training,75,D4,,0
IW1506MALE20,150,1,2,training,100,D5,,1
IW1506MALE20,120,0,2,experiment,63,D3,62.9905312,0
IW1506MALE20,120,0,2,experiment,25,D1,32.4779604,0
IW1506MALE20,120,0,2,experiment,100,D5,38.5958836,1
IW1506MALE20,120,0,2,experiment,63,D3,57.9336997,0
IW1506MALE20,120,0,3,experiment,100,D5,51.0718585,1
IW1506MALE20,120,0,4,experiment,12,D1,64.9204912,0
IW1506MALE20,120,0,4,experiment,0,D0,41.8852637,0
IW1506MALE20,120,0,3,experiment,0,D0,38.5762444,0
IW1506MALE20,120,0,4,experiment,25,D2,91.6814143,0
IW1506MALE20,120,0,2,experiment,50,D2,70.2796329,0
IW1506MALE20,120,0,4,experiment,100,D5,59.0545646,1
IW1506MALE20,120,0,4,experiment,87,D4,78.0912947,0
IW1506MALE20,120,0,4,experiment,12,D1,94.8687412,0
IW1506MALE20,120,0,3,experiment,16,D1,33.6515907,0
IW1506MALE20,120,0,2,experiment,100,D5,60.1641824,1
IW1506MALE20,120,0,3,experiment,0,D0,19.5234741,0
IW1506MALE20,120,0,3,experiment,16,D1,26.6490974,0
IW1506MALE20,120,0,3,experiment,75,D3,53.7447529,0
JB2801MALE20,150,1,2,training,100,D5,,1
JB2801MALE20,150,1,2,training,100,D5,,1
JB2801MALE20,120,0,4,experiment,81,D3,91.0341962,0
JB2801MALE20,120,0,4,experiment,25,D2,68.1351241,0
JB2801MALE20,120,0,4,experiment,12,D1,96.7678034,0
JB2801MALE20,120,0,3,experiment,83,D4,58.1051342,0
JB2801MALE20,120,0,3,experiment,75,D3,82.9398126,0
JB2801MALE20,120,0,2,experiment,100,D5,76.8894176,1
JB2801MALE20,120,0,2,experiment,25,D1,67.6993593,0
JB2801MALE20,120,0,3,experiment,16,D1,74.4154894,0
JB2801MALE20,120,0,2,experiment,63,D3,86.9490688,0
JB2801MALE20,120,0,2,experiment,100,D5,50.9118016,1
JB2801MALE20,120,0,4,experiment,12,D1,,0
JB2801MALE20,120,0,4,experiment,87,D4,44.9022484,0
JB2801MALE20,120,0,3,experiment,0,D0,,0
JB2801MALE20,120,0,2,experiment,100,D5,78.3324291,1
JB2801MALE20,120,0,3,experiment,83,D4,74.7484051,0
JB2801MALE20,120,0,2,experiment,50,D2,61.7121111,0
JB2801MALE20,120,0,4,experiment,100,D5,,0
JB2801MALE20,120,0,3,experiment,100,D5,23.0523885,1
JB2802FEMALE24,150,1,2,training,50,D2,,0
JB2802FEMALE24,150,1,2,training,100,D5,,1
JB2802FEMALE24,120,0,4,experiment,87,D4,66.236856,0
JB2802FEMALE24,120,0,4,experiment,25,D2,39.9702161,0
JB2802FEMALE24,120,0,2,experiment,100,D5,21.6268776,1
JB2802FEMALE24,120,0,3,experiment,0,D0,49.9337205,0
JB2802FEMALE24,120,0,4,experiment,100,D5,31.8938181,1
JB2802FEMALE24,120,0,2,experiment,63,D3,24.7066763,0
JB2802FEMALE24,120,0,3,experiment,100,D5,34.6292879,1
JB2802FEMALE24,120,0,3,experiment,16,D1,21.2178686,0
JB2802FEMALE24,120,0,2,experiment,75,D4,38.3923649,0
JB2802FEMALE24,120,0,4,experiment,0,D0,15.1944717,0
JB2802FEMALE24,120,0,2,experiment,25,D1,22.474161,0
JB2802FEMALE24,120,0,3,experiment,100,D5,30.289713,1
JB2802FEMALE24,120,0,4,experiment,81,D3,57.6584353,0
JB2802FEMALE24,120,0,2,experiment,50,D2,26.4685822,0
JB2802FEMALE24,120,0,2,experiment,50,D2,14.1589389,0
JB2802FEMALE24,120,0,3,experiment,16,D1,26.8534217,0
JB2802FEMALE24,120,0,3,experiment,100,D5,31.3093229,1
JB2802FEMALE24,120,0,4,experiment,100,D5,39.4133189,1
JD1609MALE20,150,1,2,training,100,D5,,1
JD1609MALE20,150,1,2,training,100,D5,,1
JD1609MALE20,120,0,4,experiment,100,D5,109.727239,1
JD1609MALE20,120,0,3,experiment,100,D5,97.0389496,1
JD1609MALE20,120,0,4,experiment,100,D5,47.3518651,1
JD1609MALE20,120,0,4,experiment,25,D2,38.2197354,0
JD1609MALE20,120,0,4,experiment,100,D5,68.7178982,1
JD1609MALE20,120,0,2,experiment,100,D5,36.4373797,1
JD1609MALE20,120,0,3,experiment,83,D4,61.428324,0
JD1609MALE20,120,0,2,experiment,25,D1,74.7733228,0
JD1609MALE20,120,0,3,experiment,100,D5,50.7854129,1
JD1609MALE20,120,0,3,experiment,83,D4,32.6371858,0
JD1609MALE20,120,0,4,experiment,87,D4,16.8287722,0
JD1609MALE20,120,0,4,experiment,100,D5,22.5286471,1
JD1609MALE20,120,0,3,experiment,83,D4,,0
JD1609MALE20,120,0,2,experiment,63,D3,37.030402,0
JD1609MALE20,120,0,3,experiment,33,D2,22.7704045,0
JD1609MALE20,120,0,2,experiment,100,D5,40.0732877,1
JD1609MALE20,120,0,2,experiment,75,D4,34.2671023,0
JD1609MALE20,120,0,2,experiment,50,D2,50.7731167,0
JF2903FEMALE21,150,1,2,training,,NO,,0
JF2903FEMALE21,150,1,2,training,0,D0,,0
JF2903FEMALE21,120,0,2,experiment,100,D5,,0
JF2903FEMALE21,120,0,4,experiment,81,D3,,0
JF2903FEMALE21,120,0,2,experiment,100,D5,,0
JF2903FEMALE21,120,0,4,experiment,,NO,,0
JF2903FEMALE21,120,0,2,experiment,100,D5,89.3669686,1
JF2903FEMALE21,120,0,2,experiment,100,D5,113.581608,1
JF2903FEMALE21,120,0,3,experiment,75,D3,117.610922,0
JF2903FEMALE21,120,0,3,experiment,100,D5,114.336927,1
JF2903FEMALE21,120,0,3,experiment,83,D4,112.779129,0
JF2903FEMALE21,120,0,2,experiment,75,D4,,0
JF2903FEMALE21,120,0,4,experiment,100,D5,101.70354,1
JF2903FEMALE21,120,0,3,experiment,100,D5,77.171221,1
JF2903FEMALE21,120,0,2,experiment,63,D3,,0
JF2903FEMALE21,120,0,3,experiment,100,D5,100.474792,1
JF2903FEMALE21,120,0,4,experiment,100,D5,98.5595661,1
JF2903FEMALE21,120,0,4,experiment,81,D3,108.370208,0
JF2903FEMALE21,120,0,3,experiment,83,D4,31.5728723,0
JF2903FEMALE21,120,0,4,experiment,87,D4,40.5098746,0
JG0702MALE20,150,1,2,training,100,D5,,1
JG0702MALE20,150,1,2,training,0,D0,,0
JG0702MALE20,120,0,4,experiment,87,D4,85.0409434,0
JG0702MALE20,120,0,2,experiment,75,D4,53.334046,0
JG0702MALE20,120,0,3,experiment,75,D3,51.8372653,0
JG0702MALE20,120,0,3,experiment,33,D2,60.7312907,0
JG0702MALE20,120,0,4,experiment,87,D4,34.4038195,0
JG0702MALE20,120,0,3,experiment,100,D5,61.653898,1
JG0702MALE20,120,0,3,experiment,100,D5,55.2334537,1
JG0702MALE20,120,0,4,experiment,100,D5,46.1610402,1
JG0702MALE20,120,0,4,experiment,0,D0,45.7110344,0
JG0702MALE20,120,0,4,experiment,81,D3,30.1122227,0
JG0702MALE20,120,0,2,experiment,50,D2,32.7673224,0
JG0702MALE20,120,0,4,experiment,25,D2,18.3036203,0
JG0702MALE20,120,0,2,experiment,0,D0,17.5401617,0
JG0702MALE20,120,0,2,experiment,0,D0,28.7207761,0
JG0702MALE20,120,0,3,experiment,16,D1,37.1792138,0
JG0702MALE20,120,0,3,experiment,100,D5,39.1941092,1
JG0702MALE20,120,0,2,experiment,75,D4,27.497627,0
JG0702MALE20,120,0,2,experiment,75,D4,30.1736121,0
JH2611MALE20,150,1,2,training,,NO,,0
JH2611MALE20,150,1,2,training,100,D5,,0
JH2611MALE20,120,0,4,experiment,81,D3,115.677441,0
JH2611MALE20,120,0,4,experiment,100,D5,118.080053,1
JH2611MALE20,120,0,4,experiment,100,D5,110.793557,1
JH2611MALE20,120,0,2,experiment,100,D5,,0
JH2611MALE20,120,0,3,experiment,100,D5,113.420237,1
JH2611MALE20,120,0,2,experiment,100,D5,117.012672,1
JH2611MALE20,120,0,4,experiment,100,D5,116.832815,1
JH2611MALE20,120,0,4,experiment,100,D5,115.862158,1
JH2611MALE20,120,0,3,experiment,100,D5,82.7217132,1
JH2611MALE20,120,0,2,experiment,100,D5,101.372344,1
JH2611MALE20,120,0,3,experiment,100,D5,82.9228484,1
JH2611MALE20,120,0,3,experiment,100,D5,58.1103699,1
JH2611MALE20,120,0,2,experiment,100,D5,108.737399,1
JH2611MALE20,120,0,2,experiment,100,D5,107.989531,1
JH2611MALE20,120,0,3,experiment,100,D5,66.0511344,1
JH2611MALE20,120,0,2,experiment,100,D5,47.4878206,1
JH2611MALE20,120,0,4,experiment,100,D5,80.0602678,1
JH2611MALE20,120,0,3,experiment,100,D5,55.138375,1
JH2803MALE20,150,1,2,training,100,D5,,1
JH2803MALE20,150,1,2,training,63,D3,,0
JH2803MALE20,120,0,2,experiment,100,D5,117.304463,1
JH2803MALE20,120,0,3,experiment,100,D5,49.0824016,1
JH2803MALE20,120,0,4,experiment,81,D3,117.603515,0
JH2803MALE20,120,0,2,experiment,100,D5,58.3062153,1
JH2803MALE20,120,0,2,experiment,75,D4,118.851001,0
JH2803MALE20,120,0,3,experiment,100,D5,109.603191,1
JH2803MALE20,120,0,2,experiment,100,D5,51.3807628,1
JH2803MALE20,120,0,4,experiment,100,D5,57.8165743,1
JH2803MALE20,120,0,4,experiment,87,D4,,0
JH2803MALE20,120,0,4,experiment,100,D5,96.4396015,1
JH2803MALE20,120,0,4,experiment,87,D4,44.6739059,0
JH2803MALE20,120,0,4,experiment,25,D2,110.77221,0
JH2803MALE20,120,0,3,experiment,33,D2,103.493315,0
JH2803MALE20,120,0,3,experiment,75,D3,114.038758,0
JH2803MALE20,120,0,2,experiment,50,D2,66.3279684,0
JH2803MALE20,120,0,3,experiment,100,D5,62.7801219,1
JH2803MALE20,120,0,3,experiment,83,D4,74.5920461,0
JH2803MALE20,120,0,2,experiment,25,D1,23.6193219,0
JJ1906MALE20,150,1,2,training,,NO,,0
JJ1906MALE20,150,1,2,training,75,D4,,0
JJ1906MALE20,120,0,3,experiment,100,D5,82.4711397,1
JJ1906MALE20,120,0,2,experiment,100,D5,87.046235,1
JJ1906MALE20,120,0,4,experiment,87,D4,47.4066938,0
JJ1906MALE20,120,0,4,experiment,25,D2,,0
JJ1906MALE20,120,0,2,experiment,75,D4,49.7599982,0
JJ1906MALE20,120,0,3,experiment,100,D5,85.7122203,1
JJ1906MALE20,120,0,3,experiment,100,D5,108.077733,1
JJ1906MALE20,120,0,2,experiment,100,D5,95.161136,1
JJ1906MALE20,120,0,2,experiment,100,D5,57.0740188,1
JJ1906MALE20,120,0,4,experiment,25,D2,62.156227,0
JJ1906MALE20,120,0,4,experiment,25,D2,104.026687,0
JJ1906MALE20,120,0,2,experiment,100,D5,48.5827424,1
JJ1906MALE20,120,0,4,experiment,100,D5,108.101599,1
JJ1906MALE20,120,0,3,experiment,100,D5,57.0516438,1
JJ1906MALE20,120,0,3,experiment,75,D3,63.3457626,0
JJ1906MALE20,120,0,3,experiment,75,D3,86.4291812,0
JJ1906MALE20,120,0,2,experiment,100,D5,52.1262696,1
JJ1906MALE20,120,0,4,experiment,25,D2,112.907383,0
JK1909MALE20,150,1,2,training,,NO,,0
JK1909MALE20,150,1,2,training,25,D1,,0
JK1909MALE20,120,0,3,experiment,,NO,,0
JK1909MALE20,120,0,2,experiment,,NO,,0
JK1909MALE20,120,0,2,experiment,,NO,,0
JK1909MALE20,120,0,2,experiment,100,D5,114.215901,1
JK1909MALE20,120,0,2,experiment,0,D0,55.1703987,0
JK1909MALE20,120,0,4,experiment,,NO,,0
JK1909MALE20,120,0,3,experiment,100,D5,118.655447,1
JK1909MALE20,120,0,4,experiment,87,D4,109.629339,0
JK1909MALE20,120,0,3,experiment,83,D4,119.488663,0
JK1909MALE20,120,0,2,experiment,63,D3,118.220016,0
JK1909MALE20,120,0,3,experiment,100,D5,101.93143,1
JK1909MALE20,120,0,4,experiment,87,D4,102.349632,0
JK1909MALE20,120,0,4,experiment,100,D5,106.660107,1
JK1909MALE20,120,0,3,experiment,,NO,,0
JK1909MALE20,120,0,3,experiment,75,D3,112.354435,0
JK1909MALE20,120,0,2,experiment,25,D1,47.6956191,0
JK1909MALE20,120,0,4,experiment,100,D5,111.232981,1
JK1909MALE20,120,0,4,experiment,100,D5,,0
JL2506MALE20,150,1,2,training,100,D5,,1
JL2506MALE20,150,1,2,training,100,D5,,1
JL2506MALE20,120,0,3,experiment,75,D3,38.9200614,0
JL2506MALE20,120,0,3,experiment,100,D5,63.2429989,1
JL2506MALE20,120,0,3,experiment,33,D2,93.7679527,0
JL2506MALE20,120,0,2,experiment,75,D4,40.8211464,0
JL2506MALE20,120,0,2,experiment,50,D2,29.8096037,0
JL2506MALE20,120,0,2,experiment,50,D2,28.4590678,0
JL2506MALE20,120,0,4,experiment,25,D2,25.6801997,0
JL2506MALE20,120,0,3,experiment,33,D2,72.0598436,0
JL2506MALE20,120,0,4,experiment,100,D5,71.194297,1
JL2506MALE20,120,0,4,experiment,81,D3,101.584667,0
JL2506MALE20,120,0,3,experiment,75,D3,55.9342797,0
JL2506MALE20,120,0,4,experiment,81,D3,34.7103009,0
JL2506MALE20,120,0,2,experiment,63,D3,,0
JL2506MALE20,120,0,3,experiment,75,D3,,0
JL2506MALE20,120,0,2,experiment,100,D5,,0
JL2506MALE20,120,0,4,experiment,87,D4,64.1974509,0
JL2506MALE20,120,0,4,experiment,12,D1,18.9856385,0
JL2506MALE20,120,0,2,experiment,100,D5,,0
JM1401MALE20,150,1,2,training,100,D5,,1
JM1401MALE20,150,1,2,training,100,D5,,1
JM1401MALE20,120,0,3,experiment,83,D4,93.1812405,0
JM1401MALE20,120,0,2,experiment,100,D5,39.5588467,1
JM1401MALE20,120,0,2,experiment,100,D5,57.8090071,1
JM1401MALE20,120,0,2,experiment,100,D5,28.0626139,1
JM1401MALE20,120,0,4,experiment,100,D5,94.0374452,1
JM1401MALE20,120,0,3,experiment,100,D5,90.6579312,1
JM1401MALE20,120,0,4,experiment,87,D4,98.9988257,0
JM1401MALE20,120,0,4,experiment,100,D5,45.8572106,1
JM1401MALE20,120,0,4,experiment,,NO,,0
JM1401MALE20,120,0,3,experiment,100,D5,57.8317826,1
JM1401MALE20,120,0,4,experiment,,NO,,0
JM1401MALE20,120,0,2,experiment,,NO,,0
JM1401MALE20,120,0,2,experiment,50,D2,28.4211409,0
JM1401MALE20,120,0,2,experiment,,NO,,0
JM1401MALE20,120,0,4,experiment,,NO,,0
JM1401MALE20,120,0,3,experiment,,NO,,0
JM1401MALE20,120,0,3,experiment,83,D4,20.6873627,0
JM1401MALE20,120,0,3,experiment,,NO,,0
JM2212MALE20,150,1,2,training,50,D2,,0
JM2212MALE20,150,1,2,training,0,D0,,0
JM2212MALE20,120,0,2,experiment,100,D5,39.6824044,1
JM2212MALE20,120,0,3,experiment,0,D0,65.9878278,0
JM2212MALE20,120,0,2,experiment,75,D4,67.1070057,0
JM2212MALE20,120,0,4,experiment,100,D5,106.569857,1
JM2212MALE20,120,0,2,experiment,50,D2,107.236971,0
JM2212MALE20,120,0,2,experiment,100,D5,53.8867411,1
JM2212MALE20,120,0,3,experiment,83,D4,56.3759349,0
JM2212MALE20,120,0,4,experiment,100,D5,57.8787753,1
JM2212MALE20,120,0,2,experiment,100,D5,75.8191143,1
JM2212MALE20,120,0,2,experiment,25,D1,29.4704618,0
JM2212MALE20,120,0,4,experiment,100,D5,59.1861595,1
JM2212MALE20,120,0,3,experiment,100,D5,40.4527462,1
JM2212MALE20,120,0,4,experiment,100,D5,43.3603898,1
JM2212MALE20,120,0,4,experiment,87,D4,37.3649971,0
JM2212MALE20,120,0,3,experiment,100,D5,49.6037359,1
JM2212MALE20,120,0,3,experiment,75,D3,43.7011624,0
JM2212MALE20,120,0,3,experiment,33,D2,17.2946065,0
JM2212MALE20,120,0,4,experiment,100,D5,35.7068415,1
JP1109MALE20,150,1,2,training,75,D4,,0
JP1109MALE20,150,1,2,training,100,D5,,1
JP1109MALE20,120,0,2,experiment,100,D5,39.7831141,1
JP1109MALE20,120,0,4,experiment,100,D5,33.9532452,1
JP1109MALE20,120,0,3,experiment,83,D4,72.6433458,0
JP1109MALE20,120,0,3,experiment,100,D5,71.2475621,1
JP1109MALE20,120,0,2,experiment,100,D5,40.5284855,1
JP1109MALE20,120,0,2,experiment,100,D5,45.3628471,1
JP1109MALE20,120,0,2,experiment,0,D0,17.1285928,0
JP1109MALE20,120,0,4,experiment,100,D5,41.5421121,1
JP1109MALE20,120,0,3,experiment,33,D2,47.8526902,0
JP1109MALE20,120,0,2,experiment,63,D3,27.693257,0
JP1109MALE20,120,0,3,experiment,100,D5,36.0507103,1
JP1109MALE20,120,0,4,experiment,100,D5,34.1202122,1
JP1109MALE20,120,0,4,experiment,81,D3,44.3525385,0
JP1109MALE20,120,0,2,experiment,100,D5,19.4631655,1
JP1109MALE20,120,0,3,experiment,100,D5,49.1919551,1
JP1109MALE20,120,0,3,experiment,100,D5,40.1177463,1
JP1109MALE20,120,0,4,experiment,25,D2,58.3778749,0
JP1109MALE20,120,0,4,experiment,25,D2,52.5354495,0
JP1606MALE20,150,1,2,training,100,D5,,1
JP1606MALE20,150,1,2,training,100,D5,,1
JP1606MALE20,120,0,4,experiment,100,D5,115.51987,1
JP1606MALE20,120,0,3,experiment,100,D5,84.9910647,1
JP1606MALE20,120,0,2,experiment,100,D5,77.0634295,1
JP1606MALE20,120,0,4,experiment,100,D5,66.6096604,1
JP1606MALE20,120,0,3,experiment,100,D5,56.1243003,1
JP1606MALE20,120,0,2,experiment,100,D5,40.650229,1
JP1606MALE20,120,0,2,experiment,100,D5,84.4438793,1
JP1606MALE20,120,0,4,experiment,100,D5,73.6315201,1
JP1606MALE20,120,0,3,experiment,16,D1,76.4858907,0
JP1606MALE20,120,0,4,experiment,100,D5,106.935173,1
JP1606MALE20,120,0,3,experiment,83,D4,54.9732301,0
JP1606MALE20,120,0,2,experiment,100,D5,99.7879376,1
JP1606MALE20,120,0,2,experiment,100,D5,76.8597092,1
JP1606MALE20,120,0,4,experiment,100,D5,68.5752844,1
JP1606MALE20,120,0,4,experiment,100,D5,88.0421053,1
