ID,TIME,FEEDBACK,N_FIGURES,TRIAL,SELECTED,RS,ACCURACY,LATENCY
10,45,1,2,training,D0,0,0,
10,45,1,2,training,D1,25,0,
10,60,0,4,experiment,D4,87,0,26.8188726
10,60,0,3,experiment,D2,33,0,34.780132
10,60,0,4,experiment,D2,25,0,48.6127634
10,60,0,2,experiment,D1,25,0,42.8462706
10,60,0,4,experiment,D5,100,1,41.5721352
10,60,0,3,experiment,D4,83,0,33.082429
10,60,0,3,experiment,D3,75,0,29.8754947
10,60,0,3,experiment,D4,83,0,
10,60,0,2,experiment,D5,100,1,36.4883303
10,60,0,4,experiment,D2,25,0,
10,60,0,2,experiment,D4,75,0,44.7404977
10,60,0,4,experiment,D2,25,0,
10,60,0,2,experiment,D0,0,0,
10,60,0,3,experiment,D0,0,0,
10,60,0,2,experiment,D4,75,0,14.2208439
10,60,0,2,experiment,D1,25,0,13.4543959
10,60,0,3,experiment,D3,75,0,
10,60,0,4,experiment,D4,87,0,
12,45,1,2,training,NO,,0,
12,45,1,2,training,D0,0,0,
12,60,0,4,experiment,D2,25,0,34.2174204
12,60,0,2,experiment,NO,,0,
12,60,0,2,experiment,D4,75,0,46.6899466
12,60,0,4,experiment,D4,87,0,25.9777531
12,60,0,3,experiment,D4,83,0,19.6202621
12,60,0,4,experiment,D1,12,0,18.6607053
12,60,0,2,experiment,D4,75,0,33.7803253
12,60,0,2,experiment,D1,25,0,21.3031042
12,60,0,3,experiment,D4,83,0,54.5579271
12,60,0,3,experiment,D2,33,0,11.4545146
12,60,0,4,experiment,D2,25,0,
12,60,0,2,experiment,D3,63,0,
12,60,0,2,experiment,D5,100,0,
12,60,0,4,experiment,D3,81,0,
12,60,0,3,experiment,D2,33,0,
12,60,0,4,experiment,D2,25,0,17.4236377
12,60,0,3,experiment,D0,0,0,
12,60,0,3,experiment,D2,33,0,13.2915544
13,45,1,2,training,D1,25,0,
13,45,1,2,training,D4,75,0,
13,60,0,2,experiment,D2,50,0,
13,60,0,2,experiment,D2,50,0,
13,60,0,3,experiment,D2,33,0,54.9207756
13,60,0,2,experiment,D2,50,0,
13,60,0,4,experiment,D5,100,0,
13,60,0,4,experiment,D4,87,0,
13,60,0,2,experiment,D1,25,0,44.7544114
13,60,0,3,experiment,D2,33,0,
13,60,0,3,experiment,D5,100,1,31.6869886
13,60,0,4,experiment,D5,100,1,35.8133927
13,60,0,2,experiment,D5,100,1,26.4681327
13,60,0,3,experiment,D4,83,0,42.2818513
13,60,0,4,experiment,D5,100,1,13.5988135
13,60,0,4,experiment,D4,87,0,17.4092977
13,60,0,3,experiment,D4,83,0,10.7368437
13,60,0,4,experiment,D5,100,0,
13,60,0,2,experiment,D0,0,0,13.1864691
13,60,0,3,experiment,D4,83,0,
14,45,1,2,training,D4,75,0,
14,45,1,2,training,D1,25,0,
14,60,0,3,experiment,D5,100,1,55.0676156
14,60,0,2,experiment,D3,63,0,47.7308736
14,60,0,4,experiment,D0,0,0,44.1240832
14,60,0,4,experiment,D1,12,0,47.941348
14,60,0,2,experiment,D1,25,0,37.7140602
14,60,0,3,experiment,D2,33,0,19.0741896
14,60,0,3,experiment,D3,75,0,18.5249704
14,60,0,4,experiment,D1,12,0,18.2701466
14,60,0,4,experiment,D1,12,0,
14,60,0,2,experiment,D1,25,0,
14,60,0,3,experiment,D5,100,1,11.2472661
14,60,0,2,experiment,D1,25,0,11.3473224
14,60,0,3,experiment,D1,16,0,
14,60,0,3,experiment,D2,33,0,
14,60,0,2,experiment,D2,50,0,
14,60,0,2,experiment,D3,63,0,24.8308907
14,60,0,4,experiment,D5,100,0,
14,60,0,4,experiment,D4,87,0,10.1422254
15,45,1,2,training,NO,,0,
15,45,1,2,training,D3,63,0,
15,60,0,3,experiment,D3,75,0,30.584611
15,60,0,3,experiment,D3,75,0,31.9843186
15,60,0,2,experiment,D2,50,0,29.9264461
15,60,0,3,experiment,D5,100,1,28.0088755
15,60,0,3,experiment,D0,0,0,27.8304383
15,60,0,3,experiment,D2,33,0,30.9248002
15,60,0,2,experiment,D2,50,0,26.3365243
15,60,0,2,experiment,D0,0,0,33.4570753
15,60,0,4,experiment,D1,12,0,14.6439989
15,60,0,4,experiment,D1,12,0,16.827167
15,60,0,2,experiment,D2,50,0,27.9989532
15,60,0,4,experiment,D2,25,0,14.0723281
15,60,0,4,experiment,D5,100,1,17.1312471
15,60,0,4,experiment,D5,100,1,28.1597356
15,60,0,2,experiment,D4,75,0,26.7072469
15,60,0,4,experiment,D0,0,0,36.7297448
15,60,0,3,experiment,D5,100,1,28.1692038
15,60,0,2,experiment,D2,50,0,23.4297035
16,45,1,2,training,D2,50,0,
16,45,1,2,training,D0,0,0,
16,60,0,4,experiment,D5,100,1,47.0566588
16,60,0,3,experiment,D5,100,1,43.8127015
16,60,0,4,experiment,D0,0,0,48.8675006
16,60,0,3,experiment,D5,100,1,53.2318232
16,60,0,2,experiment,D5,100,1,48.0545575
16,60,0,4,experiment,D5,100,1,45.7457001
16,60,0,4,experiment,D1,12,0,35.4622936
16,60,0,2,experiment,D4,75,0,49.2377923
16,60,0,2,experiment,D1,25,0,50.0407849
16,60,0,4,experiment,D5,100,1,21.831459
16,60,0,4,experiment,D5,100,1,34.6106692
16,60,0,3,experiment,D0,0,0,43.9496015
16,60,0,2,experiment,D0,0,0,18.0622543
16,60,0,3,experiment,D4,83,0,24.6066472
16,60,0,2,experiment,D5,100,1,25.9657644
16,60,0,3,experiment,D5,100,1,12.0537144
16,60,0,2,experiment,D3,63,0,16.1871862
16,60,0,3,experiment,D4,83,0,29.0694402
17,45,1,2,training,NO,,0,
17,45,1,2,training,NO,,0,
17,60,0,2,experiment,D0,0,0,54.176551
17,60,0,4,experiment,D3,81,0,54.2530926
17,60,0,3,experiment,D1,16,0,49.8146816
17,60,0,3,experiment,D4,83,0,47.4414007
17,60,0,3,experiment,D1,16,0,53.154409
17,60,0,4,experiment,NO,,0,
17,60,0,4,experiment,D3,81,0,49.8407072
17,60,0,3,experiment,D5,100,1,55.6809425
17,60,0,2,experiment,D2,50,0,54.5976243
17,60,0,2,experiment,NO,,0,
17,60,0,3,experiment,D3,75,0,45.5777472
17,60,0,2,experiment,D0,0,0,40.1611475
17,60,0,4,experiment,D2,25,0,25.0664741
17,60,0,2,experiment,D5,100,1,25.6863751
17,60,0,3,experiment,D3,75,0,35.0040753
17,60,0,4,experiment,D1,12,0,24.7377289
17,60,0,2,experiment,D4,75,0,29.3388371
17,60,0,4,experiment,D2,25,0,19.3030648
18,45,1,2,training,D5,100,1,
18,45,1,2,training,D2,50,0,
18,60,0,3,experiment,D3,75,0,13.5500097
18,60,0,2,experiment,D3,63,0,
18,60,0,4,experiment,D4,87,0,21.2902276
18,60,0,4,experiment,D4,87,0,32.1754596
18,60,0,2,experiment,D2,50,0,25.7139285
18,60,0,2,experiment,D4,75,0,19.2922067
18,60,0,2,experiment,D0,0,0,46.2742254
18,60,0,2,experiment,D2,50,0,
18,60,0,3,experiment,D2,33,0,24.9210104
18,60,0,3,experiment,D3,75,0,27.6234131
18,60,0,4,experiment,D1,12,0,16.6437267
18,60,0,4,experiment,D2,25,0,26.8966103
18,60,0,4,experiment,D2,25,0,34.795615
18,60,0,3,experiment,D4,83,0,37.4891897
18,60,0,3,experiment,D1,16,0,12.5933213
18,60,0,4,experiment,D4,87,0,36.8532278
18,60,0,2,experiment,D2,50,0,12.0707001
18,60,0,3,experiment,D5,100,1,36.1365906
20,45,1,2,training,D0,0,0,
20,45,1,2,training,D1,25,0,
20,60,0,3,experiment,D5,100,0,
20,60,0,2,experiment,D4,75,0,
20,60,0,4,experiment,D5,100,0,
20,60,0,2,experiment,D4,75,0,
20,60,0,4,experiment,D5,100,0,
20,60,0,4,experiment,D1,12,0,
20,60,0,3,experiment,D2,33,0,
20,60,0,4,experiment,D1,12,0,
20,60,0,3,experiment,D4,83,0,31.3217789
20,60,0,2,experiment,D2,50,0,47.4392978
20,60,0,2,experiment,D2,50,0,45.8659003
20,60,0,2,experiment,D5,100,1,46.9768539
20,60,0,2,experiment,D5,100,1,30.8163355
20,60,0,3,experiment,D5,100,1,22.8144606
20,60,0,3,experiment,D4,83,0,16.0086622
20,60,0,4,experiment,D0,0,0,14.9318291
20,60,0,4,experiment,D5,100,1,20.2374756
20,60,0,3,experiment,D4,83,0,21.2906722
21,45,1,2,training,D2,50,0,
21,45,1,2,training,D0,0,0,
21,60,0,4,experiment,D0,0,0,11.1477
21,60,0,4,experiment,D0,0,0,10.3420622
21,60,0,3,experiment,D0,0,0,
21,60,0,2,experiment,D1,25,0,20.6457091
21,60,0,4,experiment,D1,12,0,14.4952315
21,60,0,2,experiment,D1,25,0,19.6540126
21,60,0,3,experiment,D0,0,0,31.745919
21,60,0,2,experiment,D0,0,0,
21,60,0,2,experiment,D0,0,0,15.1672068
21,60,0,3,experiment,D0,0,0,26.2499249
21,60,0,3,experiment,D0,0,0,27.5591021
21,60,0,3,experiment,D4,83,0,25.4584044
21,60,0,4,experiment,D1,12,0,17.7012057
21,60,0,4,experiment,D2,25,0,22.5334707
21,60,0,4,experiment,D1,12,0,12.795765
21,60,0,2,experiment,D0,0,0,40.8706626
21,60,0,3,experiment,D1,16,0,31.2505397
21,60,0,2,experiment,D1,25,0,22.0372889
22,45,1,2,training,D1,25,0,
22,45,1,2,training,D0,0,0,
22,60,0,4,experiment,NO,,0,
22,60,0,4,experiment,NO,,0,
22,60,0,4,experiment,D3,81,0,52.2512364
22,60,0,4,experiment,D5,100,1,44.6803121
22,60,0,3,experiment,D5,100,1,52.5868893
22,60,0,3,experiment,D4,83,0,41.0683241
22,60,0,2,experiment,NO,,0,
22,60,0,3,experiment,D2,33,0,58.1077101
22,60,0,3,experiment,D4,83,0,55.4497004
22,60,0,3,experiment,D5,100,1,53.9440441
22,60,0,3,experiment,D4,83,0,49.6356314
22,60,0,2,experiment,D3,63,0,54.2129078
22,60,0,2,experiment,D5,100,1,28.0775383
22,60,0,2,experiment,D2,50,0,39.5703579
22,60,0,2,experiment,D1,25,0,46.7503992
22,60,0,4,experiment,D4,87,0,25.8472204
22,60,0,4,experiment,D3,81,0,36.2055909
22,60,0,2,experiment,D1,25,0,18.1699996
23,45,1,2,training,NO,,0,
23,45,1,2,training,NO,,0,
23,60,0,4,experiment,NO,,0,
23,60,0,3,experiment,NO,,0,
23,60,0,2,experiment,D3,63,0,42.0412526
23,60,0,3,experiment,D4,83,0,28.6149367
23,60,0,3,experiment,D5,100,1,46.9707808
23,60,0,3,experiment,D4,83,0,22.8068845
23,60,0,2,experiment,D5,100,1,45.256244
23,60,0,4,experiment,D5,100,1,46.1445157
23,60,0,3,experiment,D4,83,0,58.0416086
23,60,0,2,experiment,D3,63,0,53.1566082
23,60,0,2,experiment,D5,100,1,31.7879544
23,60,0,4,experiment,D0,0,0,41.4467851
23,60,0,4,experiment,D3,81,0,26.0516274
23,60,0,4,experiment,D3,81,0,37.6367131
23,60,0,4,experiment,D3,81,0,35.675899
23,60,0,2,experiment,D5,100,1,23.4572849
23,60,0,2,experiment,D5,100,1,23.3631904
23,60,0,3,experiment,D0,0,0,26.8930099
24,45,1,2,training,D1,25,0,
24,45,1,2,training,D0,0,0,
24,60,0,4,experiment,D3,81,0,47.7919633
24,60,0,2,experiment,D4,75,0,20.0398601
24,60,0,4,experiment,D1,12,0,51.5677531
24,60,0,3,experiment,D5,100,1,33.9580415
24,60,0,4,experiment,D4,87,0,11.538812
24,60,0,2,experiment,D4,75,0,24.5469815
24,60,0,2,experiment,D4,75,0,35.1955966
24,60,0,4,experiment,D1,12,0,27.0038155
24,60,0,3,experiment,D2,33,0,42.5275515
24,60,0,3,experiment,D1,16,0,16.3841881
24,60,0,3,experiment,D2,33,0,15.7719691
24,60,0,4,experiment,D4,87,0,21.040321
24,60,0,2,experiment,D2,50,0,34.2147739
24,60,0,3,experiment,D5,100,1,22.8830627
24,60,0,2,experiment,D4,75,0,34.7289802
24,60,0,2,experiment,D3,63,0,
24,60,0,3,experiment,D1,16,0,18.0768418
24,60,0,4,experiment,D4,87,0,16.1572175
25,45,1,2,training,D1,25,0,
25,45,1,2,training,NO,,0,
25,60,0,2,experiment,D3,63,0,
25,60,0,2,experiment,D5,100,1,32.3307311
25,60,0,4,experiment,NO,,0,
25,60,0,2,experiment,D4,75,0,40.3715296
25,60,0,4,experiment,D3,81,0,45.2471268
25,60,0,2,experiment,D2,50,0,
25,60,0,2,experiment,D5,100,1,19.8055662
25,60,0,3,experiment,D3,75,0,30.4349705
25,60,0,3,experiment,D2,33,0,
25,60,0,2,experiment,D5,100,1,22.2965224
25,60,0,3,experiment,D5,100,1,53.127407
25,60,0,3,experiment,D4,83,0,30.5356771
25,60,0,4,experiment,D4,87,0,56.0882718
25,60,0,3,experiment,NO,,0,
25,60,0,4,experiment,D4,87,0,50.933445
25,60,0,4,experiment,D5,100,1,46.7241914
25,60,0,3,experiment,D0,0,0,
25,60,0,4,experiment,D0,0,0,
28,45,1,2,training,NO,,0,
28,45,1,2,training,D1,25,0,
28,60,0,3,experiment,D5,100,1,53.99192
28,60,0,4,experiment,D1,12,0,31.275708
28,60,0,2,experiment,D3,63,0,48.9787444
28,60,0,3,experiment,D3,75,0,31.7334432
28,60,0,4,experiment,D4,87,0,25.5657044
28,60,0,3,experiment,D1,16,0,24.1769888
28,60,0,2,experiment,D5,100,1,34.5054961
28,60,0,3,experiment,D3,75,0,24.2393764
28,60,0,4,experiment,D0,0,0,36.0259309
28,60,0,2,experiment,D1,25,0,
28,60,0,4,experiment,D1,12,0,22.0591096
28,60,0,4,experiment,D0,0,0,
28,60,0,3,experiment,D3,75,0,10.2039251
28,60,0,4,experiment,D4,87,0,13.1689934
28,60,0,2,experiment,D5,100,0,
28,60,0,2,experiment,D5,100,1,13.1110445
28,60,0,2,experiment,D1,25,0,25.9675275
28,60,0,3,experiment,D0,0,0,
29,45,1,2,training,D3,63,0,
29,45,1,2,training,D5,100,1,
29,60,0,2,experiment,D2,50,0,57.3231387
29,60,0,2,experiment,D4,75,0,
29,60,0,4,experiment,D5,100,1,55.7139239
29,60,0,3,experiment,D3,75,0,
29,60,0,4,experiment,D3,81,0,48.7930168
29,60,0,3,experiment,D5,100,1,57.0484414
29,60,0,4,experiment,D4,87,0,47.3668075
29,60,0,3,experiment,D3,75,0,58.2594947
29,60,0,3,experiment,D5,100,1,58.3143524
29,60,0,3,experiment,D3,75,0,40.8107637
29,60,0,2,experiment,D5,100,1,34.9603081
29,60,0,4,experiment,D1,12,0,38.6368782
29,60,0,4,experiment,D0,0,0,52.4536925
29,60,0,2,experiment,D4,75,0,58.9122769
29,60,0,2,experiment,D4,75,0,34.743266
29,60,0,3,experiment,D2,33,0,48.0228706
29,60,0,4,experiment,D5,100,1,58.0288902
29,60,0,2,experiment,D4,75,0,50.9587141
30,45,1,2,training,D5,100,0,
30,45,1,2,training,D4,75,0,
30,60,0,3,experiment,D5,100,1,21.6698137
30,60,0,3,experiment,D1,16,0,51.6297519
30,60,0,2,experiment,D4,75,0,51.6489031
30,60,0,3,experiment,D5,100,1,34.5341824
30,60,0,4,experiment,D2,25,0,35.0036583
30,60,0,4,experiment,D1,12,0,46.6221905
30,60,0,3,experiment,D1,16,0,54.6530457
30,60,0,2,experiment,D1,25,0,54.0230244
30,60,0,2,experiment,D1,25,0,44.9611056
30,60,0,4,experiment,D1,12,0,51.8868081
30,60,0,2,experiment,D0,0,0,43.6315104
30,60,0,4,experiment,D2,25,0,48.0112778
30,60,0,2,experiment,D0,0,0,42.6444125
30,60,0,4,experiment,D2,25,0,50.1869016
30,60,0,3,experiment,D0,0,0,52.9292842
30,60,0,2,experiment,D1,25,0,47.2944596
30,60,0,3,experiment,D0,0,0,22.0634229
30,60,0,4,experiment,D5,100,1,21.919041
31,45,1,2,training,D2,50,0,
31,45,1,2,training,D3,63,0,
31,60,0,4,experiment,D3,81,0,44.9346714
31,60,0,3,experiment,D3,75,0,52.7798235
31,60,0,3,experiment,D5,100,1,42.0066121
31,60,0,2,experiment,D4,75,0,33.598627
31,60,0,3,experiment,D0,0,0,57.2705221
31,60,0,2,experiment,D0,0,0,32.7696782
31,60,0,2,experiment,D4,75,0,20.856764
31,60,0,3,experiment,D4,83,0,43.1814979
31,60,0,3,experiment,D4,83,0,31.101606
31,60,0,4,experiment,D5,100,1,51.8509152
31,60,0,4,experiment,D3,81,0,38.4444061
31,60,0,4,experiment,D3,81,0,56.2145968
31,60,0,4,experiment,D3,81,0,47.4684375
31,60,0,2,experiment,D5,100,1,57.8582338
31,60,0,2,experiment,D3,63,0,30.0557281
31,60,0,3,experiment,D5,100,1,33.954286
31,60,0,2,experiment,D2,50,0,17.1555682
31,60,0,4,experiment,D3,81,0,
32,45,1,2,training,NO,,0,
32,45,1,2,training,NO,,0,
32,60,0,2,experiment,NO,,0,
32,60,0,2,experiment,D3,63,0,58.2410742
32,60,0,2,experiment,NO,,0,
32,60,0,2,experiment,NO,,0,
32,60,0,4,experiment,D5,100,0,
32,60,0,3,experiment,D0,0,0,55.4160103
32,60,0,3,experiment,NO,,0,
32,60,0,2,experiment,D0,0,0,58.0670556
32,60,0,3,experiment,NO,,0,
32,60,0,4,experiment,D1,12,0,49.1661747
32,60,0,2,experiment,D1,25,0,43.1780051
32,60,0,3,experiment,D3,75,0,54.6754798
32,60,0,4,experiment,NO,,0,
32,60,0,4,experiment,NO,,0,
32,60,0,4,experiment,D5,100,1,56.1092173
32,60,0,4,experiment,D4,87,0,51.3653881
32,60,0,3,experiment,D2,33,0,40.5939869
32,60,0,3,experiment,D2,33,0,59.352709
34,45,1,2,training,NO,,0,
34,45,1,2,training,D2,50,0,
34,60,0,2,experiment,D2,50,0,56.4426182
34,60,0,4,experiment,D5,100,1,38.6768749
34,60,0,3,experiment,D3,75,0,
34,60,0,3,experiment,D2,33,0,54.9960033
34,60,0,4,experiment,D3,81,0,55.9889338
34,60,0,2,experiment,D0,0,0,58.6510353
34,60,0,3,experiment,D5,100,1,52.8772007
34,60,0,3,experiment,D5,100,1,48.5909913
34,60,0,2,experiment,D5,100,1,59.9209659
34,60,0,4,experiment,D3,81,0,57.9869386
34,60,0,4,experiment,D5,100,0,
34,60,0,2,experiment,D5,100,0,
34,60,0,3,experiment,D5,100,1,58.1577895
34,60,0,4,experiment,D5,100,1,40.5288771
34,60,0,3,experiment,D5,100,1,35.0820572
34,60,0,4,experiment,D5,100,1,55.9561966
34,60,0,2,experiment,D5,100,1,52.3010783
34,60,0,2,experiment,D5,100,1,55.0230677
35,45,1,2,training,D0,0,0,
35,45,1,2,training,D1,25,0,
35,60,0,4,experiment,D5,100,1,46.9088602
35,60,0,2,experiment,D0,0,0,56.7197899
35,60,0,4,experiment,D3,81,0,56.5356892
35,60,0,3,experiment,D5,100,1,44.7801373
35,60,0,2,experiment,D5,100,1,47.3780594
35,60,0,4,experiment,D1,12,0,53.2899831
35,60,0,2,experiment,D5,100,1,40.1037855
35,60,0,2,experiment,D5,100,1,55.5157047
35,60,0,2,experiment,D4,75,0,
35,60,0,4,experiment,D4,87,0,55.2822688
35,60,0,3,experiment,D5,100,1,57.6839833
35,60,0,4,experiment,D4,87,0,
35,60,0,3,experiment,D5,100,1,51.7473994
35,60,0,3,experiment,D5,100,1,55.2684721
35,60,0,3,experiment,D3,75,0,52.7724859
35,60,0,3,experiment,NO,,0,
35,60,0,4,experiment,D5,100,1,57.7639493
35,60,0,2,experiment,D4,75,0,37.2544925
36,45,1,2,training,D1,25,0,
36,45,1,2,training,D5,100,0,
36,60,0,3,experiment,D0,0,0,33.3720995
36,60,0,3,experiment,D1,16,0,33.9360088
36,60,0,4,experiment,D0,0,0,38.8670776
36,60,0,4,experiment,D0,0,0,57.1742915
36,60,0,4,experiment,D0,0,0,21.6491136
36,60,0,3,experiment,D0,0,0,34.2335889
36,60,0,2,experiment,D1,25,0,53.3770703
36,60,0,2,experiment,D1,25,0,51.2878083
36,60,0,4,experiment,D0,0,0,44.9402725
36,60,0,4,experiment,D0,0,0,47.0296923
36,60,0,2,experiment,D2,50,0,
36,60,0,3,experiment,D0,0,0,52.5077582
36,60,0,2,experiment,D1,25,0,28.6464924
36,60,0,2,experiment,D0,0,0,38.6804413
36,60,0,2,experiment,D0,0,0,14.9042049
36,60,0,4,experiment,D0,0,0,35.8005422
36,60,0,3,experiment,D0,0,0,22.1406456
36,60,0,3,experiment,D0,0,0,24.7031316
37,45,1,2,training,NO,,0,
37,45,1,2,training,D4,75,0,
37,60,0,2,experiment,D1,25,0,48.1170375
37,60,0,2,experiment,D4,75,0,37.0566273
37,60,0,3,experiment,NO,,0,
37,60,0,3,experiment,D0,0,0,19.6745806
37,60,0,4,experiment,D1,12,0,56.7512564
37,60,0,2,experiment,D3,63,0,35.5578003
37,60,0,4,experiment,D0,0,0,52.9201183
37,60,0,4,experiment,D4,87,0,53.5252838
37,60,0,4,experiment,D0,0,0,53.5806849
37,60,0,3,experiment,D5,100,1,29.0136186
37,60,0,2,experiment,D2,50,0,38.819474
37,60,0,3,experiment,D4,83,0,11.8823493
37,60,0,2,experiment,D0,0,0,10.3461423
37,60,0,3,experiment,D1,16,0,31.453822
37,60,0,4,experiment,D1,12,0,14.7375467
37,60,0,4,experiment,D4,87,0,26.3155161
37,60,0,2,experiment,D5,100,1,10.6810609
37,60,0,3,experiment,D3,75,0,
38,45,1,2,training,D0,0,0,
38,45,1,2,training,D0,0,0,
38,60,0,4,experiment,D2,25,0,21.3892455
38,60,0,2,experiment,D5,100,1,58.7847611
38,60,0,3,experiment,D5,100,1,57.0039077
38,60,0,4,experiment,D5,100,1,42.7290898
38,60,0,2,experiment,D0,0,0,56.1759544
38,60,0,2,experiment,D1,25,0,54.4144051
38,60,0,4,experiment,D2,25,0,58.346522
38,60,0,3,experiment,D0,0,0,53.9294976
38,60,0,4,experiment,D2,25,0,21.1761318
38,60,0,2,experiment,D5,100,1,50.30755
38,60,0,2,experiment,D4,75,0,42.1664887
38,60,0,3,experiment,D4,83,0,14.0104257
38,60,0,3,experiment,D5,100,1,41.907533
38,60,0,4,experiment,D4,87,0,42.6008978
38,60,0,4,experiment,D5,100,1,48.4732522
38,60,0,3,experiment,D1,16,0,19.5123295
38,60,0,3,experiment,D0,0,0,13.1221365
38,60,0,2,experiment,D2,50,0,12.8944165
39,45,1,2,training,D3,63,0,
39,45,1,2,training,D2,50,0,
39,60,0,3,experiment,D3,75,0,45.3500411
39,60,0,2,experiment,D4,75,0,22.0288093
39,60,0,2,experiment,D4,75,0,19.0365088
39,60,0,4,experiment,D2,25,0,34.1254066
39,60,0,4,experiment,D5,100,1,32.8604177
39,60,0,3,experiment,D3,75,0,16.5420698
39,60,0,2,experiment,D0,0,0,10.3063056
39,60,0,2,experiment,D1,25,0,43.4041793
39,60,0,3,experiment,D5,100,1,32.1724516
39,60,0,3,experiment,D5,100,1,12.9294843
39,60,0,3,experiment,D2,33,0,24.4995611
39,60,0,2,experiment,D4,75,0,12.4495136
39,60,0,3,experiment,D4,83,0,
39,60,0,4,experiment,D1,12,0,20.2948647
39,60,0,4,experiment,D3,81,0,12.1259172
39,60,0,4,experiment,D2,25,0,15.3507893
39,60,0,2,experiment,D0,0,0,
39,60,0,4,experiment,D0,0,0,13.596362
40,45,1,2,training,D2,50,0,
40,45,1,2,training,D1,25,0,
40,60,0,3,experiment,D4,83,0,48.4184938
40,60,0,2,experiment,D5,100,1,51.6754795
40,60,0,3,experiment,D5,100,1,39.8090958
40,60,0,2,experiment,D1,25,0,49.1169996
40,60,0,2,experiment,D3,63,0,32.5535043
40,60,0,4,experiment,D0,0,0,
40,60,0,3,experiment,D2,33,0,
40,60,0,2,experiment,D0,0,0,42.683123
40,60,0,2,experiment,D1,25,0,10.5024224
40,60,0,2,experiment,D1,25,0,34.6808472
40,60,0,4,experiment,D2,25,0,39.9357986
40,60,0,4,experiment,D2,25,0,36.4869758
40,60,0,4,experiment,D2,25,0,
40,60,0,3,experiment,D3,75,0,
40,60,0,3,experiment,D5,100,0,
40,60,0,4,experiment,D2,25,0,38.2804423
40,60,0,3,experiment,D2,33,0,
40,60,0,4,experiment,D4,87,0,
41,45,1,2,training,NO,,0,
41,45,1,2,training,D5,100,0,
41,60,0,4,experiment,D5,100,0,
41,60,0,3,experiment,D2,33,0,
41,60,0,3,experiment,NO,,0,
41,60,0,4,experiment,D4,87,0,28.4245272
41,60,0,2,experiment,D1,25,0,
41,60,0,3,experiment,D5,100,1,34.6872706
41,60,0,4,experiment,D5,100,1,40.97107
41,60,0,2,experiment,D5,100,1,45.500543
41,60,0,3,experiment,D5,100,1,43.5978501
41,60,0,4,experiment,NO,,0,
41,60,0,2,experiment,D5,100,1,35.9741757
41,60,0,2,experiment,D4,75,0,44.1184779
41,60,0,2,experiment,D5,100,1,52.0664278
41,60,0,2,experiment,NO,,0,
41,60,0,4,experiment,NO,,0,
41,60,0,3,experiment,D5,100,1,51.6413878
41,60,0,3,experiment,D5,100,1,34.5779699
41,60,0,4,experiment,D4,87,0,39.0891563
42,45,1,2,training,NO,,0,
42,45,1,2,training,D1,25,0,
42,60,0,2,experiment,D1,25,0,
42,60,0,3,experiment,D4,83,0,43.8330212
42,60,0,4,experiment,D5,100,0,
42,60,0,2,experiment,D5,100,1,43.8926296
42,60,0,3,experiment,D4,83,0,44.7962664
42,60,0,2,experiment,D4,75,0,33.3944325
42,60,0,4,experiment,D3,81,0,52.7675554
42,60,0,4,experiment,D5,100,1,43.9362775
42,60,0,4,experiment,D5,100,1,41.7141051
42,60,0,2,experiment,D5,100,1,40.4222775
42,60,0,2,experiment,D5,100,1,54.294322
42,60,0,3,experiment,D1,16,0,
42,60,0,4,experiment,D5,100,1,43.2083179
42,60,0,3,experiment,D3,75,0,28.2484342
42,60,0,4,experiment,D5,100,1,27.2947925
42,60,0,3,experiment,D4,83,0,23.8973296
42,60,0,3,experiment,D5,100,1,30.452418
42,60,0,2,experiment,D5,100,1,44.2280137
43,45,1,2,training,D0,0,0,
43,45,1,2,training,D1,25,0,
43,60,0,3,experiment,D1,16,0,
43,60,0,2,experiment,D5,100,0,
43,60,0,3,experiment,D5,100,0,
43,60,0,3,experiment,D2,33,0,
43,60,0,3,experiment,D3,75,0,
43,60,0,4,experiment,D5,100,0,
43,60,0,4,experiment,D4,87,0,
43,60,0,4,experiment,D4,87,0,
43,60,0,4,experiment,D3,81,0,
43,60,0,3,experiment,D5,100,1,55.452415
43,60,0,4,experiment,D4,87,0,
43,60,0,2,experiment,D2,50,0,54.2292567
43,60,0,2,experiment,D1,25,0,53.2750013
43,60,0,2,experiment,D1,25,0,40.7614993
43,60,0,4,experiment,D0,0,0,38.7748401
43,60,0,2,experiment,D5,100,1,20.0671881
43,60,0,2,experiment,D4,75,0,15.5076137
43,60,0,3,experiment,D5,100,0,
44,45,1,2,training,D3,63,0,
44,45,1,2,training,D0,0,0,
44,60,0,4,experiment,D4,87,0,40.4270804
44,60,0,4,experiment,D5,100,1,56.8554241
44,60,0,4,experiment,D4,87,0,59.8989229
44,60,0,3,experiment,D1,16,0,57.4223736
44,60,0,2,experiment,D5,100,1,57.5377004
44,60,0,2,experiment,D4,75,0,53.9104014
44,60,0,4,experiment,D0,0,0,54.6055878
44,60,0,2,experiment,D4,75,0,43.8061534
44,60,0,4,experiment,D5,100,1,27.1957674
44,60,0,3,experiment,D0,0,0,
44,60,0,3,experiment,D3,75,0,40.2132455
44,60,0,4,experiment,D2,25,0,38.0720028
44,60,0,3,experiment,D2,33,0,56.9799392
44,60,0,2,experiment,D2,50,0,59.910386
44,60,0,2,experiment,D1,25,0,22.1564158
44,60,0,2,experiment,D2,50,0,56.6384317
44,60,0,3,experiment,D0,0,0,51.6228423
44,60,0,3,experiment,D5,100,1,52.2704283
46,45,1,2,training,NO,,0,
46,45,1,2,training,D3,63,0,
46,60,0,2,experiment,D2,50,0,57.8211048
46,60,0,3,experiment,D0,0,0,40.1800866
46,60,0,3,experiment,D5,100,1,48.7500624
46,60,0,3,experiment,D0,0,0,52.0396746
46,60,0,4,experiment,D4,87,0,36.6215811
46,60,0,2,experiment,D4,75,0,49.1573328
46,60,0,4,experiment,D0,0,0,
46,60,0,3,experiment,D0,0,0,35.6167535
46,60,0,2,experiment,D5,100,1,56.9093833
46,60,0,2,experiment,D1,25,0,40.0341029
46,60,0,3,experiment,D2,33,0,31.8719905
46,60,0,4,experiment,D3,81,0,17.3648601
46,60,0,4,experiment,D0,0,0,15.4414429
46,60,0,4,experiment,D5,100,1,19.7303986
46,60,0,2,experiment,NO,,0,
46,60,0,3,experiment,D3,75,0,53.989837
46,60,0,4,experiment,D1,12,0,54.1010136
46,60,0,2,experiment,D3,63,0,37.3620494
47,45,1,2,training,D1,25,0,
47,45,1,2,training,D3,63,0,
47,60,0,2,experiment,D1,25,0,13.3960035
47,60,0,3,experiment,D1,16,0,
47,60,0,2,experiment,D2,50,0,15.8052879
47,60,0,4,experiment,D4,87,0,
47,60,0,3,experiment,D3,75,0,24.6172402
47,60,0,4,experiment,D2,25,0,27.383533
47,60,0,3,experiment,D4,83,0,35.3580323
47,60,0,4,experiment,D0,0,0,35.7335241
47,60,0,3,experiment,D3,75,0,17.0243708
47,60,0,4,experiment,D4,87,0,16.9576999
47,60,0,2,experiment,D5,100,1,21.1679972
47,60,0,4,experiment,NO,,0,
47,60,0,3,experiment,D4,83,0,25.6383773
47,60,0,2,experiment,D2,50,0,12.7725257
47,60,0,4,experiment,D0,0,0,
47,60,0,2,experiment,D1,25,0,
47,60,0,3,experiment,D3,75,0,10.30461
47,60,0,2,experiment,D5,100,1,12.0787409
48,45,1,2,training,D5,100,1,
48,45,1,2,training,D0,0,0,
48,60,0,2,experiment,D5,100,1,26.6809445
48,60,0,4,experiment,D5,100,1,31.6711444
48,60,0,4,experiment,D4,87,0,31.397307
48,60,0,2,experiment,D2,50,0,45.7007588
48,60,0,4,experiment,D3,81,0,36.9933343
48,60,0,4,experiment,D5,100,1,22.5506683
48,60,0,3,experiment,D5,100,1,37.7102154
48,60,0,2,experiment,D3,63,0,13.7382141
48,60,0,3,experiment,D5,100,1,21.6881477
48,60,0,2,experiment,D5,100,1,27.541236
48,60,0,3,experiment,D5,100,1,19.5755057
48,60,0,3,experiment,D5,100,1,30.1354137
48,60,0,3,experiment,D5,100,0,
48,60,0,4,experiment,D1,12,0,40.8369711
48,60,0,3,experiment,D4,83,0,20.963604
48,60,0,4,experiment,D4,87,0,
48,60,0,2,experiment,D1,25,0,12.1433325
48,60,0,2,experiment,D5,100,1,18.2024149
49,45,1,2,training,NO,,0,
49,45,1,2,training,D2,50,0,
49,60,0,3,experiment,D5,100,1,55.2448192
49,60,0,4,experiment,D3,81,0,45.066556
49,60,0,4,experiment,NO,,0,
49,60,0,4,experiment,D5,100,0,
49,60,0,3,experiment,D4,83,0,27.1030456
49,60,0,3,experiment,D5,100,0,
49,60,0,2,experiment,D4,75,0,46.6150281
49,60,0,3,experiment,D5,100,1,27.0434582
49,60,0,4,experiment,D5,100,1,20.5628162
49,60,0,4,experiment,D4,87,0,20.4069699
49,60,0,3,experiment,D5,100,1,30.2141499
49,60,0,3,experiment,D5,100,1,35.5214305
49,60,0,2,experiment,D0,0,0,31.903759
49,60,0,2,experiment,D4,75,0,39.6984949
49,60,0,2,experiment,D5,100,1,41.7814678
49,60,0,2,experiment,D2,50,0,28.5226974
49,60,0,2,experiment,D4,75,0,11.0899215
49,60,0,4,experiment,D1,12,0,38.9913073
51,45,1,2,training,D1,25,0,
51,45,1,2,training,D1,25,0,
51,60,0,2,experiment,D5,100,1,27.3043595
51,60,0,2,experiment,D1,25,0,49.6515803
51,60,0,3,experiment,D5,100,1,40.5151517
51,60,0,4,experiment,D2,25,0,37.0206581
51,60,0,2,experiment,D2,50,0,41.0494975
51,60,0,4,experiment,D4,87,0,21.8787626
51,60,0,2,experiment,D4,75,0,54.4927448
51,60,0,2,experiment,D2,50,0,47.8469344
51,60,0,4,experiment,D3,81,0,24.7451569
51,60,0,3,experiment,D3,75,0,
51,60,0,4,experiment,D4,87,0,18.6121077
51,60,0,3,experiment,D2,33,0,20.051746
51,60,0,3,experiment,D4,83,0,40.4948359
51,60,0,4,experiment,D5,100,1,12.0267013
51,60,0,2,experiment,D1,25,0,12.1926793
51,60,0,3,experiment,D5,100,1,20.7145038
51,60,0,3,experiment,D2,33,0,
51,60,0,4,experiment,D0,0,0,
53,45,1,2,training,D0,0,0,
53,45,1,2,training,D2,50,0,
53,60,0,4,experiment,D1,12,0,38.1654375
53,60,0,4,experiment,NO,,0,
53,60,0,4,experiment,D5,100,1,13.8442738
53,60,0,3,experiment,D3,75,0,16.7921743
53,60,0,2,experiment,D1,25,0,34.5306318
53,60,0,3,experiment,D3,75,0,32.6430273
53,60,0,3,experiment,D0,0,0,17.3749136
53,60,0,2,experiment,D4,75,0,21.919808
53,60,0,3,experiment,D5,100,0,
53,60,0,4,experiment,D0,0,0,
53,60,0,4,experiment,D5,100,0,
53,60,0,3,experiment,D0,0,0,10.3162529
53,60,0,2,experiment,D0,0,0,14.7696456
53,60,0,2,experiment,D4,75,0,17.0894729
53,60,0,2,experiment,D5,100,1,13.7964357
53,60,0,3,experiment,D1,16,0,20.6671381
53,60,0,2,experiment,D0,0,0,
53,60,0,4,experiment,D5,100,1,20.7719833
54,45,1,2,training,D3,63,0,
54,45,1,2,training,D4,75,0,
54,60,0,4,experiment,D5,100,1,41.5803322
54,60,0,2,experiment,D5,100,1,51.3347455
54,60,0,3,experiment,D3,75,0,53.037231
54,60,0,3,experiment,D5,100,1,45.4398171
54,60,0,3,experiment,D5,100,1,45.4036403
54,60,0,4,experiment,D5,100,1,51.292677
54,60,0,4,experiment,D2,25,0,41.6492722
54,60,0,3,experiment,D5,100,1,54.3391181
54,60,0,2,experiment,D3,63,0,36.4359288
54,60,0,3,experiment,D1,16,0,25.9562564
54,60,0,4,experiment,D4,87,0,36.2944723
54,60,0,2,experiment,D5,100,1,32.7853635
54,60,0,2,experiment,D5,100,1,40.5138435
54,60,0,2,experiment,D5,100,1,44.5764346
54,60,0,3,experiment,D5,100,1,32.7316714
54,60,0,2,experiment,D3,63,0,22.4688587
54,60,0,4,experiment,D4,87,0,41.9486113
54,60,0,4,experiment,D3,81,0,30.330346
55,45,1,2,training,NO,,0,
55,45,1,2,training,D4,75,0,
55,60,0,4,experiment,D3,81,0,46.9341656
55,60,0,2,experiment,D5,100,1,38.6131117
55,60,0,3,experiment,D3,75,0,37.7148822
55,60,0,4,experiment,D5,100,1,46.7411945
55,60,0,3,experiment,D5,100,1,40.9669658
55,60,0,4,experiment,D5,100,1,45.2331409
55,60,0,2,experiment,D4,75,0,34.0833954
55,60,0,4,experiment,D4,87,0,37.8866072
55,60,0,2,experiment,D2,50,0,25.5930039
55,60,0,3,experiment,D4,83,0,46.8980371
55,60,0,2,experiment,D3,63,0,31.1503433
55,60,0,2,experiment,D3,63,0,49.4590776
55,60,0,4,experiment,D3,81,0,22.3974574
55,60,0,3,experiment,D5,100,1,48.9758374
55,60,0,4,experiment,D3,81,0,53.9474365
55,60,0,2,experiment,D4,75,0,31.4498074
55,60,0,3,experiment,D4,83,0,45.0381304
55,60,0,3,experiment,D2,33,0,28.8993995
56,45,1,2,training,NO,,0,
56,45,1,2,training,D5,100,1,
56,60,0,3,experiment,D3,75,0,51.3221847
56,60,0,4,experiment,D4,87,0,53.655504
56,60,0,4,experiment,D5,100,1,45.3314675
56,60,0,4,experiment,D3,81,0,46.8341033
56,60,0,3,experiment,D2,33,0,49.9452506
56,60,0,2,experiment,D2,50,0,35.8015441
56,60,0,3,experiment,D5,100,1,50.8638278
56,60,0,2,experiment,D5,100,1,31.3762281
56,60,0,2,experiment,D4,75,0,20.6855328
56,60,0,3,experiment,D4,83,0,34.9851594
56,60,0,3,experiment,D5,100,1,10.0656779
56,60,0,4,experiment,D5,100,1,17.5317624
56,60,0,2,experiment,D0,0,0,16.7474566
56,60,0,4,experiment,D1,12,0,
56,60,0,2,experiment,D5,100,0,
56,60,0,4,experiment,D0,0,0,
56,60,0,3,experiment,D5,100,0,
56,60,0,2,experiment,D0,0,0,
57,45,1,2,training,D5,100,1,
57,45,1,2,training,D2,50,0,
57,60,0,4,experiment,D3,81,0,27.7568195
57,60,0,3,experiment,D5,100,1,23.0474275
57,60,0,4,experiment,D4,87,0,27.1144216
57,60,0,2,experiment,D5,100,1,36.1046245
57,60,0,4,experiment,D1,12,0,31.0003948
57,60,0,2,experiment,D4,75,0,47.8843989
57,60,0,4,experiment,D3,81,0,28.4784293
57,60,0,4,experiment,D5,100,1,36.2402489
57,60,0,3,experiment,D3,75,0,28.2454797
57,60,0,2,experiment,D2,50,0,25.2515758
57,60,0,3,experiment,D5,100,1,37.4076953
57,60,0,2,experiment,D5,100,1,37.7474932
57,60,0,3,experiment,D5,100,1,19.7824844
57,60,0,4,experiment,D5,100,1,21.3907259
57,60,0,3,experiment,D0,0,0,26.3666446
57,60,0,2,experiment,D5,100,1,27.4539044
57,60,0,2,experiment,D3,63,0,31.036056
57,60,0,3,experiment,D2,33,0,15.1022579
58,45,1,2,training,D1,25,0,
58,45,1,2,training,D2,50,0,
58,60,0,3,experiment,D0,0,0,21.7958266
58,60,0,3,experiment,D3,75,0,16.1360178
58,60,0,2,experiment,D0,0,0,15.8218307
58,60,0,4,experiment,D0,0,0,29.1156419
58,60,0,3,experiment,D2,33,0,27.1061097
58,60,0,4,experiment,D1,12,0,23.5854343
58,60,0,3,experiment,D3,75,0,18.2355278
58,60,0,4,experiment,D0,0,0,21.3435018
58,60,0,2,experiment,D3,63,0,14.3410503
58,60,0,3,experiment,D3,75,0,23.8297436
58,60,0,2,experiment,D5,100,0,
58,60,0,3,experiment,D1,16,0,19.4677793
58,60,0,4,experiment,D4,87,0,30.3508234
58,60,0,2,experiment,D5,100,1,14.7678801
58,60,0,4,experiment,D4,87,0,19.6640583
58,60,0,2,experiment,D4,75,0,19.8706832
58,60,0,2,experiment,D4,75,0,40.1628342
58,60,0,4,experiment,D3,81,0,44.6777598
59,45,1,2,training,NO,,0,
59,45,1,2,training,D0,0,0,
59,60,0,2,experiment,D4,75,0,54.2113128
59,60,0,3,experiment,D1,16,0,56.015099
59,60,0,3,experiment,D4,83,0,45.0538496
59,60,0,2,experiment,D5,100,1,56.2684379
59,60,0,4,experiment,D1,12,0,51.8749741
59,60,0,4,experiment,D5,100,1,22.5415445
59,60,0,4,experiment,D4,87,0,50.7680446
59,60,0,2,experiment,D5,100,1,42.5337357
59,60,0,2,experiment,D2,50,0,40.2033437
59,60,0,3,experiment,D5,100,1,33.6492623
59,60,0,3,experiment,D3,75,0,34.9463271
59,60,0,4,experiment,D4,87,0,41.8238287
59,60,0,2,experiment,D5,100,1,24.291798
59,60,0,3,experiment,D1,16,0,30.5396654
59,60,0,2,experiment,D5,100,1,35.9527822
59,60,0,4,experiment,D4,87,0,15.1731572
59,60,0,4,experiment,D1,12,0,19.7713204
59,60,0,3,experiment,D3,75,0,36.5666393
60,45,1,2,training,D5,100,1,
60,45,1,2,training,D1,25,0,
60,60,0,2,experiment,D2,50,0,42.2164362
60,60,0,4,experiment,D2,25,0,40.8976831
60,60,0,4,experiment,D2,25,0,29.3389918
60,60,0,4,experiment,D4,87,0,30.0698985
60,60,0,2,experiment,D0,0,0,18.5080084
60,60,0,2,experiment,D0,0,0,18.8233148
60,60,0,4,experiment,D4,87,0,21.1303795
60,60,0,3,experiment,D5,100,1,14.1116645
60,60,0,3,experiment,D4,83,0,26.2176385
60,60,0,2,experiment,D5,100,1,28.302093
60,60,0,3,experiment,D0,0,0,21.1631366
60,60,0,2,experiment,D4,75,0,16.0594502
60,60,0,4,experiment,D5,100,1,34.5681783
60,60,0,3,experiment,D4,83,0,
60,60,0,3,experiment,D1,16,0,31.266823
60,60,0,2,experiment,D2,50,0,35.5872438
60,60,0,4,experiment,D2,25,0,26.7067338
60,60,0,3,experiment,D4,83,0,20.2158076
61,45,1,2,training,D4,75,0,
61,45,1,2,training,D0,0,0,
61,60,0,2,experiment,D1,25,0,54.3238456
61,60,0,3,experiment,D4,83,0,57.8427441
61,60,0,4,experiment,D3,81,0,57.8815061
61,60,0,3,experiment,D3,75,0,
61,60,0,4,experiment,D5,100,1,51.8347866
61,60,0,3,experiment,D3,75,0,49.4120648
61,60,0,2,experiment,D5,100,1,59.5938641
61,60,0,2,experiment,NO,,0,
61,60,0,3,experiment,D4,83,0,44.8574627
61,60,0,4,experiment,D3,81,0,53.7044153
61,60,0,3,experiment,D4,83,0,39.9501246
61,60,0,2,experiment,D4,75,0,49.8958302
61,60,0,2,experiment,D4,75,0,45.8355515
61,60,0,4,experiment,D3,81,0,55.7085812
61,60,0,4,experiment,D5,100,1,36.0998249
61,60,0,4,experiment,D5,100,1,55.5525446
61,60,0,3,experiment,D3,75,0,
61,60,0,2,experiment,D5,100,1,45.3260791
62,45,1,2,training,NO,,0,
62,45,1,2,training,D1,25,0,
62,60,0,3,experiment,D1,16,0,
62,60,0,2,experiment,D1,25,0,
62,60,0,4,experiment,D0,0,0,
62,60,0,3,experiment,D5,100,0,
62,60,0,4,experiment,D2,25,0,34.6546726
62,60,0,2,experiment,D1,25,0,31.8433159
62,60,0,2,experiment,D3,63,0,
62,60,0,3,experiment,D2,33,0,33.3665305
62,60,0,2,experiment,D5,100,1,57.8535372
62,60,0,3,experiment,NO,,0,
62,60,0,4,experiment,D5,100,1,46.6777138
62,60,0,3,experiment,D5,100,1,28.0505106
62,60,0,4,experiment,D5,100,1,55.4843904
62,60,0,4,experiment,D2,25,0,55.1581838
62,60,0,4,experiment,D0,0,0,51.7315563
62,60,0,2,experiment,D5,100,0,
62,60,0,2,experiment,D5,100,1,33.7342092
62,60,0,3,experiment,NO,,0,
63,45,1,2,training,NO,,0,
63,45,1,2,training,D5,100,1,
63,60,0,3,experiment,D4,83,0,59.6115846
63,60,0,3,experiment,D1,16,0,53.2041259
63,60,0,4,experiment,D4,87,0,28.9087204
63,60,0,4,experiment,D3,81,0,
63,60,0,2,experiment,D1,25,0,48.5503411
63,60,0,3,experiment,D4,83,0,20.9649858
63,60,0,2,experiment,D0,0,0,56.6680966
63,60,0,4,experiment,D5,100,1,22.9651538
63,60,0,2,experiment,D2,50,0,29.0888826
63,60,0,3,experiment,D0,0,0,42.1077466
63,60,0,4,experiment,D0,0,0,38.0315242
63,60,0,2,experiment,D3,63,0,26.5143045
63,60,0,3,experiment,D0,0,0,55.4827212
63,60,0,3,experiment,D5,100,1,11.8830652
63,60,0,4,experiment,D4,87,0,55.0975422
63,60,0,4,experiment,D0,0,0,
63,60,0,2,experiment,D1,25,0,
63,60,0,2,experiment,D0,0,0,41.8259397
64,45,1,2,training,D5,100,1,
64,45,1,2,training,NO,,0,
64,60,0,4,experiment,D4,87,0,23.9213066
64,60,0,3,experiment,D5,100,1,25.5214522
64,60,0,3,experiment,D3,75,0,
64,60,0,2,experiment,D3,63,0,27.7680575
64,60,0,2,experiment,D5,100,1,25.0120499
64,60,0,3,experiment,D4,83,0,38.5224256
64,60,0,3,experiment,D4,83,0,37.9527708
64,60,0,2,experiment,D1,25,0,46.4512145
64,60,0,4,experiment,D5,100,1,54.0518998
64,60,0,4,experiment,D3,81,0,50.1153592
64,60,0,3,experiment,D1,16,0,17.0787607
64,60,0,2,experiment,D5,100,1,37.4706935
64,60,0,3,experiment,D3,75,0,35.7074211
64,60,0,4,experiment,D3,81,0,24.5637822
64,60,0,2,experiment,D5,100,1,43.1147662
64,60,0,4,experiment,D4,87,0,23.4811132
64,60,0,4,experiment,D5,100,1,18.7098351
64,60,0,2,experiment,D3,63,0,22.4505404
65,45,1,2,training,D4,75,0,
65,45,1,2,training,NO,,0,
65,60,0,3,experiment,D1,16,0,58.3713804
65,60,0,2,experiment,D5,100,1,56.1921433
65,60,0,4,experiment,D4,87,0,38.4212642
65,60,0,2,experiment,D3,63,0,55.7633773
65,60,0,2,experiment,D3,63,0,15.1927158
65,60,0,3,experiment,D1,16,0,
65,60,0,4,experiment,D3,81,0,23.6922009
65,60,0,4,experiment,D1,12,0,26.3373781
65,60,0,2,experiment,D4,75,0,16.7745837
65,60,0,3,experiment,D3,75,0,16.8801473
65,60,0,3,experiment,D4,83,0,20.5276831
65,60,0,2,experiment,D5,100,1,34.6589398
65,60,0,4,experiment,D1,12,0,12.3945431
65,60,0,3,experiment,D4,83,0,21.6287733
65,60,0,3,experiment,D0,0,0,
65,60,0,2,experiment,D5,100,0,
65,60,0,4,experiment,D5,100,0,
65,60,0,4,experiment,D5,100,1,36.9790024
66,45,1,2,training,D3,63,0,
66,45,1,2,training,D0,0,0,
66,60,0,3,experiment,D2,33,0,43.0982575
66,60,0,3,experiment,D0,0,0,34.1687199
66,60,0,2,experiment,D0,0,0,38.8886893
66,60,0,4,experiment,D0,0,0,21.2524281
66,60,0,2,experiment,D0,0,0,18.2821839
66,60,0,2,experiment,D0,0,0,12.6415929
66,60,0,4,experiment,D0,0,0,13.9756914
66,60,0,4,experiment,D1,12,0,33.7909953
66,60,0,3,experiment,D0,0,0,15.0639119
66,60,0,3,experiment,D0,0,0,21.9897301
66,60,0,3,experiment,D0,0,0,
66,60,0,2,experiment,D0,0,0,31.7894901
66,60,0,2,experiment,D0,0,0,36.7088208
66,60,0,4,experiment,D1,12,0,45.9723809
66,60,0,3,experiment,D0,0,0,13.9937776
66,60,0,2,experiment,D0,0,0,57.0922206
66,60,0,4,experiment,D0,0,0,15.7829038
66,60,0,4,experiment,D2,25,0,
67,45,1,2,training,D5,100,1,
67,45,1,2,training,D1,25,0,
67,60,0,3,experiment,D5,100,1,46.7370253
67,60,0,3,experiment,D4,83,0,35.8325701
67,60,0,4,experiment,D5,100,1,31.7084253
67,60,0,4,experiment,D1,12,0,13.7526738
67,60,0,4,experiment,D4,87,0,51.3613244
67,60,0,3,experiment,D5,100,1,16.7136417
67,60,0,2,experiment,D5,100,1,31.6672256
67,60,0,3,experiment,D3,75,0,18.907381
67,60,0,2,experiment,D3,63,0,25.7909044
67,60,0,4,experiment,D5,100,1,21.526052
67,60,0,2,experiment,D3,63,0,26.1358928
67,60,0,4,experiment,D3,81,0,18.4927083
67,60,0,3,experiment,D4,83,0,45.9184972
67,60,0,2,experiment,D3,63,0,52.3983562
67,60,0,3,experiment,D3,75,0,23.1913427
67,60,0,4,experiment,D3,81,0,57.2457631
67,60,0,2,experiment,D1,25,0,15.0354443
67,60,0,2,experiment,D4,75,0,
68,45,1,2,training,D3,63,0,
68,45,1,2,training,D2,50,0,
68,60,0,4,experiment,D0,0,0,45.745538
68,60,0,3,experiment,D2,33,0,29.588909
68,60,0,2,experiment,D1,25,0,32.4350054
68,60,0,3,experiment,D5,100,1,43.2636021
68,60,0,4,experiment,D2,25,0,48.7283627
68,60,0,2,experiment,D2,50,0,34.161399
68,60,0,3,experiment,D0,0,0,23.9467854
68,60,0,2,experiment,D3,63,0,22.6094427
68,60,0,4,experiment,D2,25,0,55.9883985
68,60,0,4,experiment,D2,25,0,30.2708307
68,60,0,3,experiment,D5,100,1,30.2985324
68,60,0,3,experiment,D4,83,0,26.9646098
68,60,0,4,experiment,D4,87,0,36.0390393
68,60,0,2,experiment,D5,100,1,50.3572453
68,60,0,4,experiment,D2,25,0,11.9917698
68,60,0,2,experiment,D1,25,0,
68,60,0,2,experiment,D0,0,0,
68,60,0,3,experiment,D3,75,0,
69,45,1,2,training,D0,0,0,
69,45,1,2,training,D2,50,0,
69,60,0,2,experiment,D2,50,0,28.9081716
69,60,0,3,experiment,D0,0,0,30.1933712
69,60,0,3,experiment,D0,0,0,26.3505835
69,60,0,3,experiment,D4,83,0,26.2907383
69,60,0,2,experiment,D4,75,0,33.8574935
69,60,0,4,experiment,D2,25,0,23.4005169
69,60,0,2,experiment,D5,100,1,14.5672687
69,60,0,4,experiment,D5,100,1,16.4485994
69,60,0,3,experiment,D0,0,0,23.6927605
69,60,0,2,experiment,D4,75,0,25.9192053
69,60,0,2,experiment,D0,0,0,10.9485596
69,60,0,4,experiment,D4,87,0,32.4089875
69,60,0,2,experiment,D5,100,1,12.1622581
69,60,0,3,experiment,D2,33,0,17.9216417
69,60,0,4,experiment,D3,81,0,30.1422105
69,60,0,4,experiment,D3,81,0,22.2981858
69,60,0,4,experiment,D1,12,0,18.2072278
69,60,0,3,experiment,D5,100,1,15.4178837
70,45,1,2,training,D0,0,0,
70,45,1,2,training,D1,25,0,
70,60,0,2,experiment,D2,50,0,
70,60,0,3,experiment,D5,100,1,32.0816998
70,60,0,2,experiment,D2,50,0,42.0204385
70,60,0,4,experiment,D3,81,0,47.6924219
70,60,0,3,experiment,D2,33,0,
70,60,0,3,experiment,D4,83,0,29.5467357
70,60,0,3,experiment,D1,16,0,39.2433079
70,60,0,4,experiment,D4,87,0,25.6612058
70,60,0,3,experiment,D4,83,0,
70,60,0,2,experiment,D5,100,1,41.999924
70,60,0,4,experiment,D0,0,0,26.1485194
70,60,0,3,experiment,D4,83,0,39.1486111
70,60,0,2,experiment,D5,100,1,35.2511837
70,60,0,2,experiment,D3,63,0,29.1374624
70,60,0,4,experiment,D4,87,0,38.9323254
70,60,0,4,experiment,D5,100,0,
70,60,0,2,experiment,D0,0,0,
70,60,0,4,experiment,D5,100,0,
71,45,1,2,training,NO,,0,
71,45,1,2,training,NO,,0,
71,60,0,4,experiment,D5,100,0,
71,60,0,2,experiment,D3,63,0,16.329408
71,60,0,4,experiment,D4,87,0,23.6955094
71,60,0,2,experiment,D0,0,0,21.3431724
71,60,0,2,experiment,D3,63,0,10.6406408
71,60,0,4,experiment,D3,81,0,11.628219
71,60,0,2,experiment,D1,25,0,11.9174661
71,60,0,3,experiment,D5,100,1,21.9025609
71,60,0,2,experiment,D0,0,0,12.425825
71,60,0,2,experiment,D5,100,1,17.6861498
71,60,0,3,experiment,D5,100,1,21.0103532
71,60,0,4,experiment,D4,87,0,20.6713036
71,60,0,3,experiment,D2,33,0,12.6841196
71,60,0,4,experiment,D5,100,0,
71,60,0,3,experiment,D3,75,0,
71,60,0,3,experiment,D2,33,0,12.8287201
71,60,0,4,experiment,D0,0,0,
71,60,0,3,experiment,D4,83,0,10.8687268
72,45,1,2,training,NO,,0,
72,45,1,2,training,NO,,0,
72,60,0,4,experiment,D4,87,0,
72,60,0,2,experiment,D5,100,0,
72,60,0,3,experiment,D5,100,0,
72,60,0,3,experiment,D1,16,0,
72,60,0,3,experiment,NO,,0,
72,60,0,3,experiment,D5,100,1,53.8009417
72,60,0,2,experiment,NO,,0,
72,60,0,4,experiment,D1,12,0,29.2546943
72,60,0,2,experiment,D5,100,0,
72,60,0,4,experiment,D5,100,1,24.5890231
72,60,0,4,experiment,D1,12,0,20.1621366
72,60,0,2,experiment,D5,100,1,19.2029832
72,60,0,4,experiment,D4,87,0,34.888198
72,60,0,4,experiment,D3,81,0,29.6243839
72,60,0,3,experiment,D1,16,0,29.7893787
72,60,0,2,experiment,D5,100,1,49.003719
72,60,0,3,experiment,D3,75,0,29.1170476
72,60,0,2,experiment,D0,0,0,42.0772882
73,45,1,2,training,D4,75,0,
73,45,1,2,training,D5,100,1,
73,60,0,4,experiment,D4,87,0,47.2441201
73,60,0,2,experiment,D1,25,0,56.8852228
73,60,0,3,experiment,D5,100,1,53.5233574
73,60,0,2,experiment,D5,100,1,59.3199787
73,60,0,4,experiment,D4,87,0,29.5985419
73,60,0,3,experiment,D1,16,0,47.7391141
73,60,0,4,experiment,D4,87,0,55.9356052
73,60,0,3,experiment,D5,100,0,
73,60,0,2,experiment,D0,0,0,36.1851837
73,60,0,3,experiment,D5,100,0,
73,60,0,2,experiment,D1,25,0,
73,60,0,2,experiment,D5,100,0,
73,60,0,4,experiment,D3,81,0,
73,60,0,2,experiment,D5,100,0,
73,60,0,3,experiment,D2,33,0,
73,60,0,4,experiment,D3,81,0,
73,60,0,4,experiment,D2,25,0,
73,60,0,3,experiment,D0,0,0,
74,45,1,2,training,D3,63,0,
74,45,1,2,training,D5,100,1,
74,60,0,4,experiment,D3,81,0,45.8596137
74,60,0,3,experiment,D1,16,0,29.5865135
74,60,0,4,experiment,D5,100,1,38.8196579
74,60,0,4,experiment,D5,100,0,
74,60,0,4,experiment,D5,100,0,
74,60,0,2,experiment,D4,75,0,54.1193039
74,60,0,4,experiment,D2,25,0,43.0411479
74,60,0,2,experiment,D1,25,0,29.0741362
74,60,0,3,experiment,D1,16,0,12.617885
74,60,0,2,experiment,D4,75,0,30.3073678
74,60,0,3,experiment,D3,75,0,33.038662
74,60,0,4,experiment,D5,100,1,15.9647308
74,60,0,3,experiment,D0,0,0,
74,60,0,2,experiment,D4,75,0,28.0121974
74,60,0,2,experiment,D4,75,0,24.2039142
74,60,0,3,experiment,D0,0,0,21.7348817
74,60,0,3,experiment,D4,83,0,17.1863741
74,60,0,2,experiment,D0,0,0,
75,45,1,2,training,D3,63,0,
75,45,1,2,training,D3,63,0,
75,60,0,3,experiment,D1,16,0,57.6589794
75,60,0,4,experiment,D5,100,1,42.1281688
75,60,0,2,experiment,D2,50,0,52.3420087
75,60,0,3,experiment,D2,33,0,34.1480823
75,60,0,3,experiment,D5,100,1,26.4862422
75,60,0,3,experiment,D5,100,1,22.4038497
75,60,0,4,experiment,D2,25,0,18.0989928
75,60,0,2,experiment,D4,75,0,37.1267846
75,60,0,4,experiment,D3,81,0,33.8541145
75,60,0,2,experiment,D0,0,0,12.1435879
75,60,0,4,experiment,D5,100,1,19.7812638
75,60,0,4,experiment,D2,25,0,12.9522898
75,60,0,2,experiment,D0,0,0,
75,60,0,3,experiment,D2,33,0,10.0406052
75,60,0,2,experiment,D0,0,0,16.0986352
75,60,0,4,experiment,D5,100,0,
75,60,0,3,experiment,D2,33,0,
75,60,0,2,experiment,D4,75,0,
76,45,1,2,training,D3,63,0,
76,45,1,2,training,NO,,0,
76,60,0,2,experiment,D3,63,0,
76,60,0,3,experiment,D4,83,0,10.2035053
76,60,0,3,experiment,D5,100,1,36.7584663
76,60,0,3,experiment,D5,100,1,33.2189942
76,60,0,4,experiment,D5,100,1,32.961782
76,60,0,4,experiment,D3,81,0,53.9514175
76,60,0,4,experiment,D5,100,1,34.3356997
76,60,0,2,experiment,D4,75,0,26.1774273
76,60,0,2,experiment,D5,100,1,32.8058073
76,60,0,4,experiment,D1,12,0,36.1133046
76,60,0,2,experiment,D2,50,0,26.1501204
76,60,0,3,experiment,D5,100,1,32.2633237
76,60,0,2,experiment,D0,0,0,20.0452294
76,60,0,2,experiment,D2,50,0,31.3736094
76,60,0,3,experiment,D3,75,0,24.2106049
76,60,0,4,experiment,D2,25,0,16.8434012
76,60,0,3,experiment,D3,75,0,11.7470389
76,60,0,4,experiment,D3,81,0,11.8179233
77,45,1,2,training,NO,,0,
77,45,1,2,training,D4,75,0,
77,60,0,2,experiment,D1,25,0,49.7923953
77,60,0,2,experiment,D0,0,0,52.3460685
77,60,0,3,experiment,D2,33,0,19.2776261
77,60,0,4,experiment,D0,0,0,20.2835594
77,60,0,2,experiment,D4,75,0,33.6124424
77,60,0,2,experiment,D1,25,0,32.0722558
77,60,0,3,experiment,D3,75,0,37.8833741
77,60,0,3,experiment,D1,16,0,39.8645189
77,60,0,2,experiment,D2,50,0,37.0674832
77,60,0,4,experiment,D1,12,0,29.220218
77,60,0,3,experiment,D3,75,0,18.5128548
77,60,0,3,experiment,D0,0,0,18.4703834
77,60,0,2,experiment,D1,25,0,11.5169822
77,60,0,4,experiment,D4,87,0,39.1267017
77,60,0,4,experiment,D2,25,0,47.6231474
77,60,0,3,experiment,D2,33,0,21.4191213
77,60,0,4,experiment,D0,0,0,
77,60,0,4,experiment,D3,81,0,30.7291479
78,45,1,2,training,D5,100,1,
78,45,1,2,training,D2,50,0,
78,60,0,2,experiment,D3,63,0,59.3067687
78,60,0,2,experiment,D5,100,1,55.9600947
78,60,0,4,experiment,D5,100,1,51.0921237
78,60,0,4,experiment,D0,0,0,35.7718514
78,60,0,3,experiment,D0,0,0,57.6989685
78,60,0,4,experiment,D3,81,0,47.9455247
78,60,0,3,experiment,D0,0,0,29.8167672
78,60,0,4,experiment,D4,87,0,56.0512002
78,60,0,4,experiment,D4,87,0,42.7335561
78,60,0,3,experiment,D5,100,1,56.7200509
78,60,0,2,experiment,D2,50,0,42.6404237
78,60,0,2,experiment,D1,25,0,43.3893076
78,60,0,3,experiment,D2,33,0,14.4493768
78,60,0,3,experiment,D5,100,1,26.2064238
78,60,0,4,experiment,D5,100,1,17.7084863
78,60,0,3,experiment,D4,83,0,
78,60,0,2,experiment,D2,50,0,
78,60,0,2,experiment,D1,25,0,
79,45,1,2,training,D0,0,0,
79,45,1,2,training,D1,25,0,
79,60,0,3,experiment,D5,100,1,42.2449607
79,60,0,4,experiment,D5,100,1,42.3794535
79,60,0,2,experiment,D2,50,0,55.2312493
79,60,0,2,experiment,D0,0,0,32.7397905
79,60,0,2,experiment,D3,63,0,25.0751784
79,60,0,4,experiment,D5,100,1,57.375504
79,60,0,4,experiment,D5,100,1,28.7828773
79,60,0,2,experiment,D1,25,0,33.4141188
79,60,0,4,experiment,D2,25,0,32.745672
79,60,0,3,experiment,D5,100,1,50.9978124
79,60,0,2,experiment,NO,,0,
79,60,0,4,experiment,D5,100,1,22.7096302
79,60,0,3,experiment,D3,75,0,33.6943516
79,60,0,3,experiment,D3,75,0,49.0744196
79,60,0,3,experiment,D2,33,0,25.3969621
79,60,0,2,experiment,D5,100,1,38.3526951
79,60,0,3,experiment,D5,100,1,18.1311812
79,60,0,4,experiment,D4,87,0,27.5333789
81,45,1,2,training,D0,0,0,
81,45,1,2,training,NO,,0,
81,60,0,3,experiment,D2,33,0,57.9436994
81,60,0,4,experiment,D3,81,0,55.2668521
81,60,0,2,experiment,D4,75,0,56.6972828
81,60,0,3,experiment,D4,83,0,
81,60,0,3,experiment,D2,33,0,45.1660312
81,60,0,2,experiment,D0,0,0,45.9153585
81,60,0,3,experiment,D3,75,0,37.4950581
81,60,0,4,experiment,D4,87,0,38.6073701
81,60,0,3,experiment,D3,75,0,
81,60,0,4,experiment,D3,81,0,59.2103558
81,60,0,3,experiment,D4,83,0,48.7761973
81,60,0,2,experiment,D2,50,0,19.7952452
81,60,0,4,experiment,D3,81,0,21.0949701
81,60,0,2,experiment,D5,100,1,32.6764066
81,60,0,4,experiment,D1,12,0,
81,60,0,4,experiment,D4,87,0,31.3136952
81,60,0,2,experiment,D4,75,0,44.4571116
81,60,0,2,experiment,D1,25,0,43.5372515
82,45,1,2,training,D5,100,1,
82,45,1,2,training,NO,,0,
82,60,0,3,experiment,D5,100,1,58.1492826
82,60,0,2,experiment,NO,,0,
82,60,0,2,experiment,NO,,0,
82,60,0,2,experiment,D3,63,0,
82,60,0,4,experiment,D3,81,0,58.838097
82,60,0,2,experiment,D5,100,1,58.9334449
82,60,0,4,experiment,D5,100,1,26.7710948
82,60,0,4,experiment,D5,100,1,47.2040666
82,60,0,3,experiment,D5,100,1,58.258754
82,60,0,2,experiment,D5,100,1,47.8624334
82,60,0,4,experiment,D4,87,0,47.6403504
82,60,0,3,experiment,D2,33,0,45.2637091
82,60,0,2,experiment,D5,100,1,31.1951761
82,60,0,3,experiment,D2,33,0,40.535646
82,60,0,3,experiment,D1,16,0,17.5282481
82,60,0,3,experiment,D3,75,0,21.5911138
82,60,0,4,experiment,D3,81,0,17.2793461
82,60,0,4,experiment,D3,81,0,20.9777203
83,45,1,2,training,D2,50,0,
83,45,1,2,training,NO,,0,
83,60,0,3,experiment,D2,33,0,
83,60,0,2,experiment,D3,63,0,
83,60,0,4,experiment,D0,0,0,50.4469894
83,60,0,4,experiment,D2,25,0,
83,60,0,3,experiment,D4,83,0,
83,60,0,4,experiment,D1,12,0,
83,60,0,3,experiment,D3,75,0,
83,60,0,2,experiment,D1,25,0,
83,60,0,4,experiment,D5,100,0,
83,60,0,2,experiment,D4,75,0,
83,60,0,4,experiment,D0,0,0,
83,60,0,2,experiment,D5,100,1,34.355557
83,60,0,3,experiment,D4,83,0,31.8898013
83,60,0,3,experiment,D4,83,0,25.6533212
83,60,0,4,experiment,D4,87,0,
83,60,0,2,experiment,D5,100,0,
83,60,0,3,experiment,D0,0,0,
83,60,0,2,experiment,D1,25,0,
87,45,1,2,training,D0,0,0,
87,45,1,2,training,D0,0,0,
87,60,0,2,experiment,D1,25,0,51.4216035
87,60,0,3,experiment,D2,33,0,35.1213786
87,60,0,2,experiment,D5,100,1,33.8324338
87,60,0,3,experiment,D3,75,0,57.6138825
87,60,0,4,experiment,D3,81,0,35.5870895
87,60,0,4,experiment,D1,12,0,45.5654503
87,60,0,4,experiment,D4,87,0,
87,60,0,4,experiment,D5,100,1,19.2548102
87,60,0,2,experiment,D4,75,0,18.4644912
87,60,0,2,experiment,D5,100,1,37.7575446
87,60,0,2,experiment,D3,63,0,21.3378693
87,60,0,4,experiment,D4,87,0,19.3409472
87,60,0,4,experiment,D5,100,1,22.4911153
87,60,0,3,experiment,D3,75,0,25.2129115
87,60,0,2,experiment,D0,0,0,
87,60,0,3,experiment,D0,0,0,12.8110528
87,60,0,3,experiment,D3,75,0,11.7245137
87,60,0,3,experiment,D0,0,0,19.0119658
9,45,1,2,training,D1,25,0,
9,45,1,2,training,D3,63,0,
9,60,0,4,experiment,D2,25,0,
9,60,0,2,experiment,NO,,0,
9,60,0,2,experiment,D5,100,0,
9,60,0,3,experiment,D4,83,0,
9,60,0,4,experiment,D4,87,0,52.6991379
9,60,0,3,experiment,D2,33,0,48.0164206
9,60,0,2,experiment,D5,100,1,47.7934367
9,60,0,2,experiment,D5,100,1,58.5731554
9,60,0,2,experiment,NO,,0,
9,60,0,2,experiment,D1,25,0,35.8395566
9,60,0,4,experiment,D5,100,1,33.5186947
9,60,0,3,experiment,D5,100,0,
9,60,0,3,experiment,D2,33,0,53.8845892
9,60,0,3,experiment,D3,75,0,13.1199278
9,60,0,4,experiment,D2,25,0,21.3420275
9,60,0,3,experiment,D1,16,0,21.3183908
9,60,0,4,experiment,D0,0,0,36.9848157
9,60,0,4,experiment,D2,25,0,
